accel_x,accel_y,accel_z,time_combined
0.2995108366012573,-9.089061737060549,-1.0576878786087036,1.6
0.630969762802124,-9.052414894104004,-1.8310850858688357,1.7
-0.0885104313492775,-8.431020736694336,-0.3548149764537811,1.8
-0.0215640179812908,-9.695878028869627,-2.8488612174987797,1.9
0.5476446151733398,-10.726505279541016,-1.272979736328125,1.1
0.155668094754219,-10.018717765808104,-2.741447925567627,1.11
0.6501106023788452,-10.426051139831545,-0.9412217736244202,1.12
-0.1296102404594421,-8.921236038208008,-1.764149188995361,1.13
0.5556426048278809,-9.812226295471191,-0.6976199150085449,1.14
0.2259871661663055,-8.911452293395996,-1.8463996648788448,1.15
0.493591159582138,-10.399700164794922,-2.2172605991363525,1.16
0.28636634349823,-8.998571395874023,-0.0990598499774932,1.17
0.3893123567104339,-9.068838119506836,-2.477417230606079,1.18
-0.2420791536569595,-8.807222366333008,-0.8859866261482239,1.19
-1.1521447896957395,-10.563237190246582,-2.6838185787200928,1.2
0.3411367237567901,-10.642294883728027,-1.1472439765930176,1.21
0.0861211195588111,-10.13563632965088,-2.704819202423096,1.22
1.3657907247543335,-9.974943161010742,-0.7245948314666748,1.23
0.6407291889190674,-8.743878364562988,-2.07350754737854,1.24
1.115440845489502,-9.60451602935791,-1.464528203010559,1.25
0.0037536546587944,-10.013191223144531,-1.7667590379714966,1.26
-1.2639797925949097,-10.181325912475586,-1.9007117748260496,1.27
-2.065526247024536,-8.856303215026855,-1.3838322162628174,1.28
-3.442269325256348,-8.742048263549805,-1.7528523206710815,1.29
-2.78348445892334,-8.581439018249512,-0.9488770365715028,1.3
-2.389565944671631,-10.544034957885742,-2.8541524410247803,1.31
-1.5983450412750244,-10.492513656616213,-1.3779278993606567,1.32
-2.9264862537384038,-12.39712905883789,-5.001932144165039,1.33
-0.6330102682113647,-15.398045539855955,-4.566794872283936,1.34
1.5620410442352295,-12.78798484802246,-1.9934922456741333,1.35
2.0719590187072754,-8.757451057434082,-1.001174807548523,1.36
3.2528281211853027,-5.979560375213623,0.637829601764679,1.37
2.62291955947876,-10.798579216003418,-4.563243865966797,1.38
0.4612865149974823,-13.327911376953123,-2.0406315326690674,1.39
-1.294161319732666,-9.452873229980469,-2.5034101009368896,1.4
-1.335042953491211,-5.434081077575684,0.5025889277458191,1.41
-0.658939003944397,-4.55363130569458,0.4084379374980926,1.42
-0.5762720108032227,-8.113076210021973,-1.0602933168411257,1.43
-0.1860564351081848,-11.129798889160156,-1.252341866493225,1.44
-0.715895414352417,-13.277788162231444,-3.621213674545288,1.45
0.0750306695699691,-9.942777633666992,0.0224198028445243,1.46
0.1364853829145431,-9.461437225341797,-3.0501081943511963,1.47
0.7823269963264465,-10.8235502243042,-0.0952094197273254,1.48
0.2284789681434631,-8.616394996643066,-1.674493670463562,1.49
-0.1479124575853347,-8.703753471374512,-1.692405343055725,1.5
-0.1288687586784362,-9.404377937316896,0.2235113680362701,1.51
-0.1399845778942108,-11.082387924194336,-3.3339524269104004,1.52
-0.4322637915611267,-10.27175235748291,-0.178876593708992,1.53
0.1315818428993225,-8.526715278625488,-1.4282195568084717,1.54
-0.9578853249549866,-8.874009132385254,0.1268201768398285,1.55
0.5719239115715027,-10.15203857421875,-2.5185015201568604,1.56
-0.2544637322425842,-11.821685791015623,-2.1515567302703857,1.57
0.1771138459444046,-8.490991592407227,0.9918566346168518,1.58
0.9196500182151794,-7.415231704711914,-1.201259970664978,1.59
-0.8370426297187805,-9.60340404510498,-0.5423969030380249,1.6
-0.5824222564697266,-12.482364654541016,-3.440093517303467,1.61
-0.174191877245903,-11.17280101776123,-0.917048454284668,1.62
-0.5802740454673767,-8.644882202148438,-1.2946940660476685,1.63
0.8777957558631897,-9.975258827209473,-1.236972689628601,1.64
0.5023153424263,-8.847635269165039,1.062010407447815,1.65
1.027443528175354,-9.185133934020996,-1.6084904670715332,1.66
0.096062034368515,-8.475826263427734,0.6845422387123108,1.67
-0.4140472114086151,-9.827837944030762,-2.2654528617858887,1.68
-0.0942570194602012,-12.008553504943848,-1.716804027557373,1.69
-0.3915736377239227,-9.26901149749756,-0.7271782755851746,1.7
0.136325404047966,-7.751238822937012,0.2706501185894012,1.71
-0.1410446316003799,-7.6028151512146,0.0997988358139991,1.72
-0.2322809845209121,-12.966602325439451,-2.482704162597656,1.73
0.0567218735814094,-11.483390808105469,-0.1667792052030563,1.74
0.4064487516880035,-9.039873123168944,-1.3808633089065552,1.75
0.1429672688245773,-7.243191242218018,0.9292915463447572,1.76
-1.014726638793945,-5.942905902862549,-0.0711358711123466,1.77
-0.9417619705200196,-10.115455627441406,-2.594898462295532,1.78
-2.8087761402130127,-11.56965446472168,0.3525243401527405,1.79
-2.572394132614136,-12.62246322631836,-2.096055030822754,1.8
2.3186299800872803,-9.7398042678833,-0.3881327509880066,1.81
3.9867451190948486,-9.273649215698242,-2.789931058883667,1.81
1.3989239931106567,-10.150144577026367,-0.0649272128939628,1.82
2.3082613945007324,-11.098662376403809,-1.0090954303741455,1.83
-0.0932052433490753,-11.72715187072754,-3.2826690673828125,1.84
-1.5336776971817017,-9.725481986999512,-1.1095948219299316,1.85
-0.5349177718162537,-9.158140182495115,-1.557561278343201,1.86
-1.0084728002548218,-7.192399024963379,0.267328530550003,1.87
-0.0759987086057663,-7.678462505340576,-0.4924002587795257,1.88
-0.8240092992782593,-9.77754020690918,0.0675572231411933,1.89
0.3731381595134735,-11.89692497253418,-1.410603404045105,1.9
-0.2185229510068893,-12.315422058105469,-2.355093717575073,1.91
0.6555858850479126,-10.708648681640623,-1.4188599586486816,1.92
0.2979922890663147,-8.553366661071777,-0.152005061507225,1.93
-0.0947795435786247,-9.049131393432615,-0.8767375349998474,1.94
-0.709847092628479,-8.808788299560547,-1.3289061784744265,1.95
0.0721853300929069,-9.450772285461426,-0.7705865502357483,1.96
-0.3104033768177032,-9.393868446350098,-0.3226342797279358,1.97
0.0188728850334882,-10.489058494567873,-0.6178994178771973,1.98
-0.1313430517911911,-11.015331268310549,-2.0494556427001958,1.99
-0.0681462809443473,-10.200533866882324,-0.5168181657791138,2.0
0.4517044126987457,-8.342473983764648,-1.0052365064620972,2.1
0.0985573306679725,-7.991604804992676,0.7208160758018494,2.2
-0.222680389881134,-8.538444519042969,-1.1386489868164062,2.3
-0.9165506958961488,-10.751215934753418,-1.2999507188796997,2.4
-0.3970149159431457,-11.039100646972656,-1.817672848701477,2.5
-0.0039225630462169,-10.58362865447998,-1.0145047903060913,2.6
0.0620443597435951,-9.758752822875977,-0.5873984098434448,2.7
0.4307743608951568,-9.982988357543944,-0.0012757033109664,2.8
0.4633028507232666,-9.336735725402832,-1.551714539527893,2.9
0.3306765854358673,-9.072226524353027,-0.8396963477134705,2.1
0.5039972066879272,-10.096263885498049,-0.8307796120643616,2.11
-0.0232734251767396,-10.613524436950684,-0.9264125823974608,2.12
-0.0244047380983829,-10.08419132232666,-1.4819382429122925,2.13
-0.041706658899784,-8.478442192077637,-0.729765772819519,2.14
0.0188515875488519,-8.790658950805664,-0.3182821571826935,2.15
-0.212403655052185,-9.574762344360352,-0.3331938683986664,2.16
0.3441140949726105,-11.369284629821776,-1.6902297735214231,2.17
-0.1036450192332267,-10.549567222595217,-1.1639411449432373,2.18
0.2502640187740326,-9.595632553100586,-0.6607276797294617,2.19
-0.2474969774484634,-8.674052238464355,-0.2919175624847412,2.2
-0.1676701009273529,-9.559429168701172,-1.0726076364517212,2.21
-0.2057979106903076,-9.888876914978027,-0.6137920022010803,2.22
0.3207049965858459,-10.670614242553713,-1.2269822359085083,2.23
-0.0242475196719169,-8.684741020202637,-0.9395870566368104,2.24
0.4561531543731689,-8.806947708129883,0.0152421370148658,2.25
-0.607885479927063,-9.543051719665527,-0.3300822377204895,2.26
0.6682420969009399,-11.190881729125977,-0.6452867388725281,2.27
0.0323239490389823,-10.64968967437744,-1.4787544012069702,2.28
0.5542107224464417,-9.790226936340332,-0.9342854022979736,2.29
0.4567558765411377,-8.061102867126465,-0.4286986589431762,2.3
1.112420678138733,-9.922874450683594,-0.1756332218647003,2.31
0.7462107539176941,-10.723651885986328,-1.160731554031372,2.32
-0.0389005169272422,-11.361541748046877,-1.272573947906494,2.33
0.1937831193208694,-10.06179141998291,-1.40855610370636,2.34
-0.1345995962619781,-9.505545616149902,-0.5875183939933777,2.35
0.0460214838385582,-8.429485321044922,-0.964441418647766,2.36
-0.1986134201288223,-9.172537803649902,-0.021404318511486,2.37
0.1680076867341995,-9.389541625976562,-1.2912496328353882,2.38
-0.2010847479104995,-10.668179512023926,-0.8514132499694824,2.39
0.410596638917923,-10.166821479797363,-1.4554086923599243,2.4
-1.1064317226409912,-10.139482498168944,-0.5151259899139404,2.41
-0.8778824210166931,-9.29169750213623,-0.963401198387146,2.42
-1.530839204788208,-9.869007110595703,-0.5685156583786011,2.43
-0.2670276463031769,-9.515944480895996,-1.172546148300171,2.44
0.5323062539100647,-10.383912086486816,-0.8341918587684631,2.45
0.4628856182098388,-10.003199577331545,-1.1363040208816528,2.46
-0.3034501373767853,-9.917572975158691,-0.3987652361392975,2.47
0.6724162697792053,-8.273971557617188,-0.5757694244384766,2.48
-0.4240419268608093,-8.65090274810791,-0.0776180177927017,2.49
0.4332897663116455,-8.592772483825684,-0.6140891313552856,2.5
-1.1420009136199951,-10.86675262451172,-0.900856912136078,2.51
-0.4274151027202606,-11.09687614440918,-1.888122081756592,2.52
-0.331256240606308,-11.15976905822754,-0.742022693157196,2.53
0.3296914994716644,-9.31969928741455,-0.8134754300117493,2.54
0.2258193492889404,-9.343486785888672,-0.0357628241181373,2.55
0.6007615327835083,-8.726333618164062,-0.622738778591156,2.56
0.0114310588687658,-9.785429000854492,-0.7466431856155396,2.57
0.2909258604049682,-10.261348724365234,-1.5378559827804563,2.58
-0.2406295239925384,-10.716785430908203,-0.8133061528205872,2.59
0.1744152903556823,-8.701939582824707,-0.7979933023452759,2.68
-0.5300527215003967,-9.911953926086426,-0.2645955383777618,2.69
0.1898991167545318,-9.32352352142334,-1.0135202407836914,2.7
-0.1788414567708969,-10.39359188079834,-0.6695548892021179,2.71
0.0534014552831649,-9.401844024658203,-0.6517903208732605,2.72
-0.0968376770615577,-10.141324996948242,-0.4079342782497406,2.73
-0.0973323136568069,-9.38392448425293,-1.0294421911239624,2.74
-0.0709881782531738,-10.246172904968262,-0.9222651720046996,2.75
-0.2847001850605011,-9.448723793029783,-0.8955201506614685,2.76
0.0719013586640358,-9.96808624267578,-0.4419897198677063,2.77
0.4232772588729858,-10.051712036132812,-1.1080693006515503,2.78
-0.0532477349042892,-10.622139930725098,-0.9665653705596924,2.79
0.1965030878782272,-10.095623970031738,-0.964706540107727,2.8
-0.4226052761077881,-9.63451099395752,-0.6734979152679443,2.81
-0.0129430219531059,-9.155047416687012,-0.3830703496932983,2.82
0.0024780984967947,-9.547544479370115,-0.7731757164001465,2.83
-0.1054735705256462,-9.406086921691896,-0.7435905933380127,2.84
0.1480715274810791,-9.946269035339355,-0.9141859412193298,2.85
0.2098308354616165,-9.911766052246094,-0.567054271697998,2.86
0.1758893579244613,-10.014161109924316,-1.151546597480774,2.86
-0.2062464654445648,-10.077392578125,-0.5472664833068848,2.87
-0.4085114896297455,-10.144551277160645,-1.183701992034912,2.88
-0.4040914475917816,-10.170905113220217,-0.4830345213413238,2.89
-0.067341461777687,-9.385290145874023,-0.9795528650283812,2.9
0.1424743086099624,-9.74314308166504,-0.39814493060112,2.91
0.6789588332176208,-9.967761039733888,-1.398447036743164,2.92
-0.0376746654510498,-10.262337684631348,-0.3492753505706787,2.93
-0.0247073955833911,-8.942934036254883,-0.8246505856513977,2.94
-0.1649941653013229,-8.761028289794922,0.2908726930618286,2.95
0.1863417029380798,-8.476211547851562,-0.6466072201728821,2.96
-0.0629945993423461,-9.750051498413086,-0.0465670526027679,2.97
-0.2533737123012543,-10.104991912841797,-1.693709373474121,2.98
-0.987921416759491,-11.413073539733888,-1.1523252725601196,2.99
-0.0041202381253242,-10.234869003295898,-1.2960491180419922,3.0
-0.3213578462600708,-9.899789810180664,-0.1224184334278106,3.1
0.5531286001205444,-8.637877464294434,-0.405202716588974,3.2
0.3920831382274627,-9.475286483764648,-0.2319877445697784,3.3
0.715677797794342,-9.321816444396973,-0.7768658399581909,3.4
-0.0883393287658691,-9.99025058746338,-0.7315093874931335,3.5
0.2338016629219055,-10.451953887939451,-1.057745337486267,3.6
-0.6751118302345276,-10.067401885986328,-1.1677532196044922,3.7
0.0237223859876394,-9.550277709960938,-0.5457592606544495,3.8
-0.2429109662771225,-9.453168869018556,-0.549283504486084,3.9
0.023691015318036,-9.799139022827148,-0.3714526295661926,3.1
-0.1578287631273269,-9.52978801727295,-1.1016414165496826,3.11
0.9694179892539978,-10.170928001403809,-0.6949906349182129,3.12
0.1273358464241027,-9.9442777633667,-1.0626232624053955,3.13
1.3107987642288208,-9.959571838378906,-0.0639283433556556,3.14
0.8928585052490234,-9.345892906188965,-0.8924415707588196,3.15
0.7862140536308289,-9.992886543273926,-0.0936703383922576,3.16
-0.047656163573265,-9.365839004516602,-1.0085465908050537,3.17
0.4294914603233337,-10.05081272125244,-0.1503123939037323,3.18
-0.0194542370736598,-9.474116325378418,-1.1575992107391355,3.19
0.2916900217533111,-9.878325462341309,-0.1702090501785278,3.2
-0.0696895495057106,-9.690513610839844,-1.12197744846344,3.21
-0.1654770970344543,-10.04052734375,-0.3880617022514343,3.22
0.1092139333486557,-9.567756652832031,-1.0775573253631592,3.23
-0.0189865864813327,-10.06221866607666,-0.6621229648590088,3.24
0.3578124344348907,-9.646896362304688,-0.8174310922622681,3.25
0.2674644589424133,-10.219717979431152,-0.6097002625465393,3.26
0.2183509618043899,-9.850330352783203,-0.8227453231811523,3.27
-0.0112633928656578,-10.208704948425291,-0.8910497426986694,3.28
-0.0075078411027789,-9.796012878417969,-0.608917236328125,3.29
-0.2851626873016357,-9.66708755493164,-0.8096574544906616,3.3
-0.1162607744336128,-9.553823471069336,-0.7754213213920593,3.31
-0.1166857779026031,-9.373991012573242,-0.970423698425293,3.32
-0.7062066197395325,-9.550858497619627,-0.2332523465156555,3.33
-1.701435923576355,-9.342597007751465,-1.3246136903762815,3.34
-0.5504653453826904,-9.990082740783691,-0.3055234849452972,3.35
0.5017997622489929,-10.033323287963867,-1.2149873971939087,3.36
0.0299439970403909,-10.550816535949709,-0.3914738595485687,3.37
-0.2293832898139953,-9.81303882598877,-1.2548974752426147,3.38
-0.2919705510139465,-10.149182319641112,0.0129260793328285,3.39
-0.037343606352806,-9.008326530456545,-1.200927734375,3.4
0.0420393794775009,-10.23572826385498,-0.2783546447753906,3.41
0.1965606212615966,-9.518243789672852,-1.3714672327041626,3.42
-0.155003473162651,-10.200977325439451,-0.1827394664287567,3.43
0.3401521742343902,-8.554195404052734,-1.276713490486145,3.44
0.0205098073929548,-9.59953498840332,0.5197388529777527,3.45
1.0142337083816528,-8.825729370117188,-0.853514552116394,3.46
0.528703510761261,-9.815308570861816,-0.2736348509788513,3.47
-0.0003359243273735,-9.533487319946287,-1.217297077178955,3.48
-0.5992944240570068,-11.20995807647705,-0.8561809062957764,3.49
0.4430688023567199,-10.440624237060549,-0.8267168402671814,3.5
-0.0305785462260246,-10.298389434814451,-0.7544106245040894,3.51
0.5896599292755127,-9.41125202178955,-0.3163720369338989,3.52
0.2216370701789856,-9.307522773742676,-0.7066773176193237,3.53
0.213454008102417,-9.419230461120604,-0.3628140687942505,3.54
0.2736914157867431,-9.84629726409912,-1.443650484085083,3.55
0.0920168831944465,-10.208125114440918,-0.2178337126970291,3.56
0.0861998796463012,-9.721744537353516,-1.465105414390564,3.57
-0.2105328887701034,-9.746745109558104,0.0791367515921592,3.58
0.072680078446865,-8.754552841186523,-1.1954617500305176,3.59
-0.3485563993453979,-9.822843551635742,0.2039295434951782,3.6
0.4429190456867218,-9.852983474731444,-1.2728312015533447,3.61
-0.2999267280101776,-10.973916053771973,-0.6204455494880676,3.62
0.0477995127439498,-9.772019386291504,-1.2492954730987549,3.63
-1.3597074747085571,-9.340828895568848,-0.4890842735767364,3.64
0.1052219197154045,-8.879111289978027,-0.6634559035301208,3.65
-0.8740381598472595,-9.50638198852539,-0.2159529626369476,3.66
0.9911987781524658,-9.387894630432127,-0.9504611492156982,3.67
-0.6233401894569397,-10.739354133605955,-0.3269511759281158,3.68
0.4592994451522827,-9.44457721710205,-0.5660105347633362,3.69
-0.4561566412448883,-10.35476779937744,-0.7530491352081299,3.7
-0.0151351932436227,-9.171764373779297,-0.7091307044029236,3.71
-0.3097052872180938,-10.505833625793455,-0.9400249719619752,3.72
0.2384037673473358,-9.861282348632812,-0.7731676697731018,3.73
-0.5233563780784607,-9.668646812438965,-0.9324813485145568,3.74
0.3251891136169433,-9.088299751281738,-0.1489411890506744,3.75
-0.2548478245735168,-9.519580841064451,-0.8169646263122559,3.76
0.0028185900300741,-10.135462760925291,-0.2974441349506378,3.77
-0.0086300196126103,-10.536941528320312,-1.774134874343872,3.78
1.0110877752304075,-10.29467487335205,-0.2812774777412414,3.79
0.0885888934135437,-9.55596923828125,-1.2159864902496338,3.8
0.7433688044548035,-9.234380722045898,0.3799130916595459,3.81
0.753689706325531,-8.922506332397461,-1.3038371801376345,3.82
0.9063290357589722,-10.12800121307373,0.2225895822048187,3.83
1.0063097476959229,-9.89941692352295,-1.3027070760726929,3.84
-0.306554228067398,-10.57016372680664,-0.4077313840389251,3.85
0.2475858628749847,-9.472254753112791,-1.1625888347625732,3.86
-0.6867347359657288,-9.67048454284668,-0.1950414180755615,3.87
0.3703972995281219,-9.28274154663086,-0.6641430854797363,3.88
-0.3989210426807403,-10.65218448638916,-0.8646659851074219,3.89
0.2429192662239074,-10.291825294494627,-1.2923331260681152,3.9
-0.5338910222053528,-10.274742126464844,-0.5954106450080872,3.91
0.5126091837882996,-9.09327220916748,-0.2245798408985138,3.91
-0.5265845656394958,-8.752121925354004,-0.5646172761917114,3.92
0.7393964529037476,-9.248504638671877,-0.2225739508867263,3.93
0.039766252040863,-9.744556427001951,-0.9825095534324646,3.94
1.0320430994033811,-10.008254051208496,-0.306603342294693,3.95
0.0231406297534704,-9.161133766174316,-0.9156116843223572,3.96
-0.0711636766791343,-9.105101585388184,-0.2452326118946075,3.97
-0.6665507555007935,-10.145416259765623,-1.316749930381775,3.98
-0.234636977314949,-11.617427825927734,-0.7662585377693176,3.99
0.1813829243183136,-10.5755615234375,-1.425668716430664,4.0
0.3384284377098083,-10.383642196655272,-0.225620299577713,4.1
0.7570628523826599,-8.738252639770508,-0.9162331819534302,4.2
0.5952683687210083,-10.271509170532228,-0.3576323390007019,4.3
0.0651794299483299,-9.739250183105469,-1.6434316635131836,4.4
-0.2483004778623581,-10.640069961547852,-0.5260960459709167,4.5
-0.2411498576402664,-8.679143905639648,-0.8348586559295654,4.6
-0.1902213394641876,-9.339911460876465,-0.1321341842412948,4.7
0.3306704759597778,-9.221561431884766,-0.7331379055976868,4.8
-0.1831918805837631,-10.944804191589355,-0.9437168836593628,4.9
0.5204147100448608,-10.171611785888672,-1.2955167293548584,4.1
-0.1193979755043983,-10.18645477294922,-0.8038604855537415,4.11
0.3738349676132202,-8.869586944580078,-0.4313724935054779,4.12
0.0222748946398496,-9.289304733276367,-0.9568672776222228,4.13
0.3045196235179901,-9.126230239868164,-0.2584324181079864,4.14
-0.3727140128612518,-9.746170043945312,-0.5260274410247803,4.15
0.063322439789772,-8.729318618774414,0.3941836059093475,4.16
0.1690476089715957,-6.989949703216553,0.1927866339683532,4.17
1.0447814464569092,-6.172091484069824,1.9475680589675903,4.18
0.0351397991180419,-7.217231750488281,-0.4643366038799286,4.19
0.3716688156127929,-10.011404037475586,0.0564961656928062,4.2
0.226859763264656,-12.12029266357422,-2.452925443649292,4.21
1.0187190771102903,-12.836336135864258,-0.3257118761539459,4.22
0.5557823777198792,-10.893508911132812,-1.42319917678833,4.23
0.9792596697807312,-9.98614501953125,0.6898599863052368,4.24
0.0270486008375883,-8.649102210998535,-0.6814826130867004,4.25
-0.1121002659201622,-9.500149726867676,-0.1723908185958862,4.26
-0.2346913069486618,-9.17225742340088,-1.0093058347702026,4.27
-0.4559823870658874,-9.61825466156006,-1.2563599348068235,4.28
0.1800908595323562,-9.373125076293944,-0.9650135040283204,4.29
0.2117835283279419,-9.635833740234377,-0.4645265936851501,4.3
0.3385608792304992,-9.736675262451172,-0.67091965675354,4.31
0.4049985110759735,-10.192689895629885,-0.7746618986129761,4.32
-0.0404878035187721,-10.019287109375,-0.9581027030944824,4.33
0.7195904850959778,-10.498204231262209,-0.8520905375480652,4.34
0.2738368511199951,-10.125284194946287,-1.2203896045684814,4.35
0.3240703642368316,-10.366873741149902,-0.9265994429588318,4.36
0.2406657040119171,-8.968512535095215,-1.0669848918914795,4.37
-0.0857516825199127,-9.21743106842041,-0.88874351978302,4.38
-0.2705729007720947,-9.096771240234377,-0.4955583810806274,4.39
0.0392175242304801,-10.10218334197998,-0.8096972703933716,4.4
-0.1910412758588791,-9.842329025268556,-1.4224324226379397,4.41
0.1771992594003677,-10.115633010864258,-0.8764784336090088,4.42
-0.047171015292406,-9.008119583129885,-1.1912312507629397,4.43
0.2001837193965912,-9.752518653869627,-0.6440355181694031,4.44
0.6255562901496887,-9.227895736694336,-1.0141626596450806,4.45
0.2770367264747619,-9.721739768981934,-1.0173720121383667,4.46
1.2663339376449585,-9.144765853881836,-1.406144142150879,4.47
0.9476840496063232,-10.217263221740724,-0.9625758528709412,4.48
1.7221577167510986,-10.469893455505373,-1.8503339290618896,4.49
2.3157317638397217,-11.51360034942627,-1.083732008934021,4.5
2.0793917179107666,-10.452537536621094,-1.6856391429901123,4.51
0.6022730469703674,-9.640356063842772,-1.2571570873260498,4.52
0.2005191147327423,-8.807159423828125,-1.272834539413452,4.53
-0.4334098994731903,-9.274454116821287,-1.0735507011413574,4.54
-0.2517980933189392,-9.41034698486328,-1.950754284858704,4.55
-0.1186053678393364,-9.669882774353027,-1.0534782409667969,4.56
0.3339457511901855,-9.401391983032228,-1.624057650566101,4.57
1.0077059268951416,-9.861626625061035,-1.1145883798599243,4.58
0.0884103700518608,-9.257020950317385,-1.4587204456329346,4.59
0.5142523050308228,-9.589323043823242,-1.1395915746688845,4.6
-0.0517095550894737,-9.598881721496582,-1.465936541557312,4.61
0.3731621503829956,-9.91981601715088,-1.3046300411224363,4.62
-0.0783040970563888,-9.92686653137207,-2.280442476272583,4.63
0.2285106480121612,-10.474111557006836,-1.857815861701965,4.64
0.2247268259525299,-9.566730499267578,-1.5690667629241943,4.65
0.966559112071991,-8.82681941986084,-0.5779668688774109,4.66
0.2751367390155792,-8.458678245544434,-0.6941151022911072,4.67
0.3275472223758697,-9.824344635009766,-0.780914306640625,4.68
-0.042451336979866,-11.017852783203123,-2.067618131637573,4.69
1.151637315750122,-11.249398231506348,-2.325488805770874,4.7
1.1408661603927612,-10.027348518371582,-1.815375566482544,4.71
1.466065526008606,-8.73540210723877,-1.406794548034668,4.72
0.7917830348014832,-8.149131774902344,-0.5620212554931641,4.73
0.441186249256134,-8.958549499511719,-0.6584293246269226,4.74
-0.2284348160028457,-9.734769821166992,-1.1649593114852903,4.75
0.0797817781567573,-10.97684097290039,-1.5514651536941528,4.76
0.2783840894699096,-11.686734199523926,-2.44606876373291,4.77
0.7808294296264648,-10.68777847290039,-1.9494112730026243,4.78
0.7320064306259155,-9.496599197387695,-1.183727145195007,4.79
0.7726107835769653,-7.751167297363281,-0.7543864846229553,4.8
0.2645803987979889,-8.248326301574707,-0.9481200575828552,4.81
0.3305023908615112,-9.081929206848145,-0.859576940536499,4.82
0.0014674197882413,-10.049684524536133,-2.0930910110473637,4.83
0.4977072179317474,-10.395742416381836,-1.5852919816970823,4.84
0.9125930070877076,-10.238333702087402,-1.7829185724258425,4.85
0.639400064945221,-10.046216011047363,-1.3410028219223022,4.86
1.066443920135498,-9.802804946899414,-1.250931739807129,4.87
0.2393065989017486,-10.216866493225098,-1.903469800949097,4.88
0.5628057718276978,-9.659207344055176,-1.2285149097442627,4.89
0.0439246818423271,-9.577202796936035,-1.9871431589126587,4.9
0.9095434546470642,-9.620756149291992,-1.1723203659057615,4.91
1.1533211469650269,-9.623177528381348,-1.710906147956848,4.92
0.9075733423233032,-9.388890266418455,-1.6430702209472656,4.93
-0.0239270143210887,-8.725032806396484,-0.861151397228241,4.94
-0.2967088520526886,-10.277505874633787,-2.1509878635406494,4.95
0.4715220034122467,-11.391393661499023,-1.8560465574264529,4.96
0.1992584019899368,-10.344389915466309,-1.886194348335266,4.96
1.013371467590332,-8.764734268188477,-1.0304023027420044,4.97
0.6719467639923096,-8.143856048583984,-0.7418339252471924,4.98
0.5959304571151733,-8.490297317504883,-1.5377458333969116,4.99
0.5613643527030945,-9.975708961486816,-1.222989797592163,5.0
0.7294732332229614,-10.534159660339355,-2.353020429611206,5.1
1.2075092792510986,-10.951608657836914,-1.5503524541854858,5.2
1.0553981065750122,-9.641521453857422,-1.5451054573059082,5.3
0.6107826828956604,-9.419605255126951,-1.629143238067627,5.4
-0.3285239934921264,-10.168121337890623,-1.034481406211853,5.5
-0.122253268957138,-10.188092231750488,-2.768560647964477,5.6
0.1566382646560669,-10.75689697265625,-2.060434103012085,5.7
1.2853059768676758,-9.154142379760742,-1.524396896362305,5.8
0.952102541923523,-8.521175384521484,-1.5020710229873655,5.9
0.5396109819412231,-8.592466354370117,-0.9971781373023988,5.1
0.4708187580108642,-9.472962379455566,-1.8199948072433472,5.11
0.3700676560401916,-10.233906745910645,-1.5557868480682373,5.12
0.6537812948226929,-10.576586723327637,-1.7922444343566897,5.13
0.3381572365760803,-10.528432846069336,-1.6887307167053225,5.14
0.5350803136825562,-9.30271816253662,-1.1846622228622437,5.15
0.2980877161026001,-8.957555770874023,-1.3718379735946655,5.16
0.4806718230247497,-8.491691589355469,-1.0067468881607056,5.17
0.1895908415317535,-8.9845609664917,-1.305072784423828,5.18
0.3401552438735962,-9.97379207611084,-1.7798469066619873,5.19
0.8483715057373047,-10.777019500732422,-2.146851062774658,5.2
0.6415143013000488,-10.941205978393556,-1.8961704969406128,5.21
1.0403869152069092,-9.842841148376465,-2.189839124679565,5.22
0.9967149496078492,-9.80993938446045,-1.3214049339294434,5.23
0.5734893083572388,-9.142935752868652,-1.4779568910598757,5.24
0.484283298254013,-8.950786590576172,-1.6447885036468506,5.25
0.4697169363498688,-9.87956428527832,-1.6972237825393677,5.26
0.6545765399932861,-10.09984302520752,-2.0127882957458496,5.27
0.437595784664154,-10.35299587249756,-1.7338892221450806,5.28
0.5137532949447632,-9.250082969665527,-1.460761308670044,5.29
1.0808560848236084,-9.431356430053713,-0.821081280708313,5.3
0.4436672329902649,-9.386128425598145,-1.4935110807418823,5.31
0.6109508275985718,-9.55923843383789,-1.50270414352417,5.32
0.6340424418449402,-9.375494956970217,-1.124620795249939,5.33
0.8618573546409607,-8.964715003967285,-1.3715533018112185,5.34
0.0964497402310371,-9.135146141052246,-1.8320649862289429,5.35
-0.6739111542701721,-10.602635383605955,-2.122797966003418,5.36
0.636797308921814,-11.233019828796388,-2.413609981536865,5.37
0.9673716425895692,-11.119592666625977,-1.8531886339187624,5.38
1.4656248092651367,-9.043404579162598,-1.2530478239059448,5.39
1.4384663105010986,-8.608089447021484,-1.1784911155700684,5.4
1.1425474882125854,-8.361299514770508,-1.229866862297058,5.41
1.0836496353149414,-9.05293083190918,-2.188140153884888,5.42
0.6297529339790344,-9.886970520019531,-1.417984127998352,5.43
0.187325045466423,-10.221636772155762,-2.2895076274871826,5.44
0.0300333853811025,-10.37753200531006,-2.027940034866333,5.45
0.3852845132350921,-9.774023056030272,-1.0654792785644531,5.46
0.1681762635707855,-10.182133674621582,-2.2202093601226807,5.47
0.4570045173168182,-9.590577125549316,-0.8148578405380249,5.48
0.116746038198471,-9.869105339050291,-2.749985694885254,5.49
0.595102071762085,-9.67388916015625,-0.8134832978248596,5.5
0.1209597438573837,-8.929398536682129,-2.776569366455078,5.51
0.433899849653244,-9.575177192687988,-1.33830988407135,5.52
0.0437465757131576,-8.39630126953125,-1.3391844034194946,5.53
0.3582640886306762,-10.151168823242188,-1.9102816581726076,5.54
0.3455525040626526,-9.633187294006348,-1.1926215887069702,5.55
0.3532752990722656,-10.661625862121582,-2.312241315841675,5.56
1.055142879486084,-9.870144844055176,-1.4198890924453735,5.57
0.6009810566902161,-9.972829818725586,-2.742593765258789,5.58
0.813151478767395,-8.994172096252441,-1.234626531600952,5.59
0.5846750736236572,-9.658692359924316,-2.432554244995117,5.6
0.2345507442951202,-9.756104469299316,-1.4431310892105105,5.61
0.3088361918926239,-9.592150688171388,-2.3083207607269287,5.62
0.2046418040990829,-9.306825637817385,-1.8028234243392944,5.63
-0.512867271900177,-8.769594192504883,-3.012984275817871,5.64
0.4673283696174621,-9.1633882522583,-1.055649995803833,5.65
0.171196311712265,-8.328865051269531,-1.5630125999450684,5.66
0.8738635182380676,-9.63101291656494,-2.0912511348724365,5.67
0.4221420288085937,-10.593497276306152,-2.418655633926392,5.68
1.3129849433898926,-11.627098083496094,-1.5774011611938477,5.69
0.9109826683998108,-9.917386054992676,-2.2623181343078613,5.7
0.7011428475379944,-10.00173282623291,-1.0036077499389648,5.71
0.8025916218757629,-8.972984313964844,-1.3529993295669556,5.72
0.4812902808189392,-10.246541976928713,-2.6991450786590576,5.73
0.5632534027099609,-10.426495552062988,-0.607142984867096,5.74
1.1530569791793823,-9.389640808105469,-3.4452810287475586,5.75
0.5109239220619202,-8.841909408569336,-0.6654408574104309,5.76
0.3096135258674621,-7.954653263092041,-1.84168803691864,5.77
-0.4663941860198974,-9.915884971618652,-1.1223978996276855,5.78
-1.116810321807861,-10.538363456726074,-3.35416579246521,5.79
0.5653027892112732,-12.432337760925291,-1.8981698751449585,5.8
1.1606141328811646,-9.510173797607422,-2.192982912063598,5.81
1.4785062074661257,-9.243029594421388,-2.1736807823181152,5.82
0.8713533282279968,-8.112357139587402,-0.520581841468811,5.83
1.2755396366119385,-8.387389183044434,-2.057093381881714,5.84
0.5929150581359863,-9.770264625549316,-1.0813961029052734,5.85
0.1211117208003997,-10.43881893157959,-3.1920740604400635,5.86
0.3801658749580383,-10.971275329589844,-0.9930657744407654,5.87
-0.0160892289131879,-9.325517654418944,-2.2711007595062256,5.88
0.5583425760269165,-9.298434257507324,-0.6510661244392395,5.89
-0.3136205375194549,-7.835997581481934,-1.9402570724487305,5.9
0.3866176009178161,-9.662287712097168,-2.4658234119415283,5.91
-0.1629064232110977,-10.139678955078123,-1.4457252025604248,5.92
1.2403948307037354,-10.176444053649902,-3.138514757156372,5.93
0.5012955069541931,-10.341233253479004,-1.0711129903793335,5.94
0.915870487689972,-9.07822322845459,-2.112557411193848,5.95
0.1677067726850509,-10.778826713562012,-1.8630821704864504,5.96
0.3569615483283996,-9.51622486114502,-1.0427298545837402,5.97
0.1960951685905456,-9.851922035217283,-2.728562831878662,5.98
0.2003823369741439,-9.14547348022461,-1.0503886938095093,5.99
0.8654653429985046,-9.612974166870115,-1.8739627599716189,5.1
0.1897707134485244,-9.707473754882812,-2.2824435234069824,6.1
-0.0914189890027046,-10.045499801635742,-1.166709303855896,6.2
0.807499885559082,-9.334406852722168,-1.8613414764404297,6.2
0.2986172139644623,-9.27692985534668,-1.0602689981460571,6.3
0.1724878847599029,-8.87834358215332,-0.968269109725952,6.4
0.2780383229255676,-9.484249114990234,-1.0338562726974487,6.5
0.3102200329303741,-10.579841613769531,-1.3838934898376465,6.6
0.4627702236175537,-10.586294174194336,-2.2598586082458496,6.7
0.4053674340248108,-10.647059440612791,-1.916195034980774,6.8
0.7364636063575745,-9.279897689819336,-2.177809238433838,6.9
0.7705113291740417,-8.859054565429688,-1.806161880493164,6.1
0.6580289602279663,-9.427846908569336,-1.9640610218048096,6.11
0.7878267168998718,-9.781996726989746,-1.5222729444503784,6.12
0.0152358952909708,-9.557822227478027,-1.8491854667663572,6.13
0.6759644746780396,-10.112740516662598,-1.755890727043152,6.14
-0.3805682063102722,-9.943805694580078,-1.595097541809082,6.15
0.4443374574184418,-9.83098030090332,-2.595418930053711,6.16
0.198220208287239,-10.75108528137207,-1.7535508871078491,6.17
0.8714931607246399,-9.19363784790039,-1.2461611032485962,6.18
0.4878711998462677,-9.051421165466309,-2.5444939136505127,6.19
0.0385276898741722,-8.227755546569824,0.7856073975563049,6.2
-0.0769826993346214,-7.778232097625732,-3.62336015701294,6.21
-0.4944380819797516,-11.167691230773926,-1.4954084157943726,6.22
-0.5360796451568604,-11.637205123901367,-3.003194808959961,6.23
1.2296041250228882,-11.966964721679688,-1.988330125808716,6.24
0.3190637528896332,-8.989767074584961,-1.1645739078521729,6.25
0.6685073971748352,-8.288187980651855,-1.168384075164795,6.26
0.7475372552871704,-7.8465752601623535,0.0237816497683525,6.27
-0.1960735619068145,-9.446700096130373,-2.483351707458496,6.28
0.3804519474506378,-9.840832710266112,-0.2371900379657745,6.29
0.6725965738296509,-8.923033714294434,-3.131730556488037,6.3
0.9173322916030884,-10.689115524291992,-2.2529940605163574,6.31
-0.0434521175920963,-9.49144172668457,-0.2697481215000152,6.32
1.3430348634719849,-10.593094825744627,-2.2636842727661133,6.33
0.0671477690339088,-9.70229434967041,-1.3664615154266355,6.34
0.0739909335970878,-10.161941528320312,-3.031191349029541,6.35
-0.1089686974883079,-9.66981315612793,-1.0927919149398804,6.36
0.240074872970581,-8.84401798248291,-2.773236989974976,6.37
0.636347770690918,-10.115619659423828,-0.236286923289299,6.38
0.7102482914924622,-8.686656951904297,-2.071461677551269,6.39
0.274209588766098,-10.235347747802734,-1.0836706161499023,6.4
0.3457972705364227,-9.24524974822998,-1.4341329336166382,6.41
0.5426183938980103,-10.908349990844728,-1.9172658920288088,6.42
0.6531650424003601,-9.74351692199707,-0.9614651799201964,6.43
0.1497321128845214,-9.49649715423584,-2.5073587894439697,6.44
0.5901885628700256,-9.232808113098145,-0.3632886111736297,6.45
-0.0953578054904937,-8.47082233428955,-1.3822219371795654,6.46
0.3092202842235565,-9.632535934448242,-2.220012664794922,6.47
0.420914351940155,-10.615777969360352,-1.0664509534835815,6.48
0.5967312455177307,-9.472980499267578,-2.232349395751953,6.49
0.9937986135482788,-10.578123092651367,-2.7437121868133545,6.5
0.368626207113266,-10.550407409667969,-1.550261616706848,6.51
0.5745349526405334,-10.464488983154297,-1.8908803462982176,6.52
0.3857187032699585,-8.235588073730469,-0.5804603695869446,6.53
-0.0963632613420486,-9.052620887756348,-2.6439900398254395,6.54
0.4220065176486969,-10.547675132751465,-0.9470314383506776,6.55
0.372860848903656,-9.202522277832031,-1.8674468994140625,6.56
0.5052658319473267,-10.21342945098877,-2.0762901306152344,6.57
0.3956902921199798,-8.898920059204102,-1.6160744428634644,6.58
0.5399219989776611,-10.506168365478516,-2.62264347076416,6.59
0.5383959412574768,-9.695845603942873,-0.3902974128723144,6.6
0.3968918621540069,-9.205157279968262,-2.735825300216675,6.61
0.6698098182678223,-10.376749992370604,-0.9895527362823486,6.62
0.0888684764504432,-9.456814765930176,-1.2442450523376465,6.63
0.6115291118621826,-9.410737037658691,-1.5204110145568848,6.64
0.1527198553085327,-8.847894668579102,-0.9879579544067384,6.65
0.8477810621261597,-8.235663414001465,-1.016318678855896,6.66
-0.1447948813438415,-9.63007354736328,-2.070277690887451,6.67
-0.6363936066627502,-10.744400024414062,-0.8110096454620361,6.68
0.368291437625885,-10.69510555267334,-3.023244619369507,6.69
0.5663828253746033,-11.2092866897583,-2.6120166778564453,6.7
0.5824801325798035,-9.554290771484377,0.2047865390777588,6.71
1.4298255443572998,-8.446152687072754,-2.627693653106689,6.72
0.8106954097747803,-9.34902000427246,-1.3579858541488647,6.73
0.2119390815496444,-9.502470970153809,-2.062046527862549,6.74
0.997406005859375,-10.573424339294434,-2.190722942352295,6.75
0.2621225416660309,-9.061161041259766,-0.7420673370361328,6.76
0.878754734992981,-9.329496383666992,-1.5539311170578003,6.77
0.20653036236763,-9.104652404785156,-0.1315778642892837,6.78
0.2963218986988067,-9.57807159423828,-2.723001003265381,6.79
-0.1210079044103622,-11.245274543762209,-1.8154672384262085,6.8
0.7535904049873352,-9.589432716369627,-0.8390648365020752,6.81
0.487800270318985,-9.584799766540527,-3.696986436843872,6.82
0.5211179256439209,-9.828324317932127,0.0913316383957862,6.83
0.3077079057693481,-8.220696449279785,-1.9440797567367556,6.84
0.646712601184845,-9.101068496704102,-0.8935763835906982,6.85
-0.4665866196155548,-8.919974327087402,-1.8689863681793213,6.86
0.3495893478393554,-11.651883125305176,-2.167868137359619,6.87
0.78204745054245,-10.19589614868164,-0.5901423692703247,6.88
0.5871586203575134,-10.126100540161133,-3.2385621070861816,6.89
1.1279411315917969,-10.375253677368164,-0.5073193311691284,6.9
0.388054758310318,-8.31032657623291,-3.217393398284912,6.91
0.9832313060760498,-10.282305717468262,-1.53542160987854,6.92
-0.1023877337574958,-8.474692344665527,-0.938140630722046,6.93
-0.2283332794904709,-9.9896240234375,-2.4913508892059326,6.94
0.3122119605541229,-10.17453670501709,-1.3684512376785278,6.95
0.3097646236419678,-9.69306755065918,-2.09248685836792,6.96
0.2307760268449783,-10.118985176086426,-1.7640738487243652,6.97
0.7574135065078735,-9.64062786102295,-1.7380908727645874,6.98
0.3706859946250915,-10.45384693145752,-1.3020936250686646,6.99
0.6345553994178772,-8.958077430725098,-1.3459798097610474,6.1
0.3230287730693817,-9.509114265441896,-1.7047069072723389,7.1
0.3053274750709533,-9.730584144592283,-1.224300503730774,7.2
0.4469206631183624,-10.20312786102295,-1.929123282432556,7.3
0.3884539306163788,-9.39034652709961,-0.8528610467910767,7.4
0.3175579011440277,-8.808359146118164,-1.5274066925048828,7.5
0.9231594204902648,-9.228233337402344,-0.8804115056991577,7.6
0.8892901539802551,-9.948026657104492,-1.0093246698379517,7.7
1.390633463859558,-10.237625122070312,-1.2805887460708618,7.7
0.2872159779071808,-9.513379096984863,-1.1229394674301147,7.8
-0.0179173611104488,-9.561803817749023,-2.3829574584960938,7.9
-0.7457565069198608,-8.06618881225586,-1.2996759414672852,7.1
-0.7243756055831909,-7.967038154602051,-5.701064109802246,7.11
-1.2703123092651367,-10.15382480621338,-5.948172569274902,7.12
-3.151619434356689,-11.28850269317627,-5.435153007507324,7.13
-2.125815153121948,-9.901816368103027,-6.878435134887695,7.14
-2.087266206741333,-9.288407325744627,-5.951217651367188,7.15
-1.9372637271881104,-8.174400329589844,-4.975648403167725,7.16
-1.271456599235535,-7.89043664932251,-4.702975749969482,7.17
-1.0010898113250732,-8.367168426513672,-5.375895977020264,7.18
0.5194908976554871,-9.00701904296875,-5.327354907989502,7.19
0.610722541809082,-9.466781616210938,-6.18100643157959,7.2
0.8162610530853271,-10.037440299987791,-6.1060791015625,7.21
0.4975289404392242,-9.451273918151855,-5.343692302703857,7.22
0.6636220812797546,-8.676802635192871,-6.218621253967285,7.23
0.5968376994132996,-9.962634086608888,-4.914477825164795,7.24
0.3917446434497833,-8.510672569274902,-4.029605865478516,7.25
-0.0741261318325996,-7.710183143615723,-7.808315277099609,7.26
0.3995892703533172,-10.186446189880373,-4.6644368171691895,7.27
-0.5313765406608582,-10.158053398132324,-7.919159889221191,7.28
0.103724680840969,-12.303536415100098,-1.4802902936935425,7.29
0.0232655275613069,-8.966347694396973,0.4889437854290008,7.3
-0.0577971413731575,-3.206383466720581,-3.9554924964904794,7.31
-0.292273074388504,-7.872029781341553,-7.775002956390381,7.32
0.4299205839633941,-15.708255767822266,0.9374096989631652,7.33
0.3833379745483398,-12.162338256835938,-2.697465419769287,7.34
0.6656264662742615,-7.009582996368408,-2.5331289768218994,7.35
-0.4086624085903168,-6.225707530975342,-2.5024778842926025,7.36
-0.0781974643468856,-9.45327854156494,-1.0794034004211426,7.37
-0.0417298898100853,-9.73618221282959,-5.929995536804199,7.38
0.0927312672138214,-12.293312072753906,-4.70865535736084,7.39
0.2937959432601928,-12.262590408325195,-1.1800991296768188,7.4
0.1771701276302337,-8.297745704650879,-0.6640824675559998,7.41
0.0481252744793891,-6.903440475463867,-0.213004007935524,7.42
-0.1147074326872825,-8.116583824157715,-0.0449513494968414,7.43
0.345264732837677,-9.76799774169922,-2.665468692779541,7.44
-0.2826023995876312,-11.86864185333252,-3.4065158367156982,7.45
0.5825141072273254,-11.606978416442873,-1.3633463382720947,7.46
-0.3406621813774109,-8.049653053283691,-4.4315338134765625,7.47
0.1575114727020263,-8.641636848449707,-1.9229414463043213,7.48
0.0367929190397262,-8.75455093383789,-2.1537463665008545,7.49
0.1136532723903656,-10.452020645141602,-2.807362794876098,7.5
0.7705199122428894,-10.929976463317873,-0.3140719830989837,7.51
-0.0994138792157173,-9.390847206115724,-1.345494270324707,7.52
0.0044212322682142,-8.883304595947266,-0.951649010181427,7.53
-0.7619807720184326,-8.757757186889648,-0.2530563175678253,7.54
0.3220166265964508,-6.835193634033203,-5.3111677169799805,7.55
-0.4740408062934875,-11.01317024230957,-7.613872051239014,7.56
0.9987460374832152,-15.015887260437012,1.2138941287994385,7.57
0.2329116463661193,-8.997036933898926,-2.242341995239258,7.58
-0.226582795381546,-4.76927661895752,-4.453779697418213,7.59
-0.4226748645305633,-8.3301362991333,-1.623194932937622,7.6
0.6145151257514954,-11.481841087341309,-1.0944985151290894,7.61
0.2662862241268158,-10.508374214172363,-3.634644985198975,7.62
-0.5535325407981873,-9.82795238494873,-3.946315050125122,7.63
0.0128442086279392,-10.410578727722168,-1.6041866540908811,7.64
0.1801550537347793,-8.572556495666504,-3.056922912597656,7.65
-0.3531727194786072,-9.14488410949707,-2.521578550338745,7.66
-0.4295389056205749,-9.813576698303224,-1.6139553785324097,7.67
0.2930828928947449,-9.384181022644045,-3.362124443054199,7.68
0.5139383673667908,-10.052653312683104,-2.3799846172332764,7.69
0.1298804581165313,-9.645137786865234,-2.411024332046509,7.7
0.3775209486484527,-9.41423797607422,-2.5218372344970703,7.71
0.0259717348963022,-9.111320495605469,-2.04034423828125,7.72
0.2802423536777496,-9.324002265930176,-2.3347973823547363,7.73
0.1687606871128082,-9.884296417236328,-2.3444747924804688,7.74
-0.0273511409759521,-9.990291595458984,-2.0039520263671875,7.75
-0.1434797197580337,-9.084394454956056,-2.260253667831421,7.76
-0.0261465795338153,-9.45440673828125,-2.2039361000061035,7.77
0.3476414978504181,-9.900894165039062,-2.203232765197754,7.78
-0.0577251836657524,-9.719547271728516,-2.3068554401397705,7.79
0.0237673465162515,-9.426709175109863,-2.153287649154663,7.8
0.2226234972476959,-9.484015464782717,-1.9530028104782104,7.81
0.045724056661129,-9.629606246948242,-1.6719061136245728,7.82
-0.4966811239719391,-9.276885032653809,-1.6769567728042605,7.83
-0.2045083492994308,-9.597865104675291,-2.149904251098633,7.84
0.3769234120845794,-10.239739418029783,-2.01974892616272,7.85
-0.2336152046918869,-9.747132301330566,-1.9550215005874636,7.86
-0.0841346830129623,-9.315193176269531,-2.0944926738739014,7.87
0.381371408700943,-9.47958755493164,-1.880947232246399,7.88
-0.020589942112565,-9.36294174194336,-1.4127869606018066,7.89
-0.0942364558577537,-9.49379825592041,-1.9983900785446167,7.9
0.2308152318000793,-9.989611625671388,-1.8511592149734497,7.91
-0.0849029123783111,-9.961233139038086,-1.7479171752929688,7.92
-0.0169515199959278,-9.9913330078125,-1.9247970581054688,7.93
0.0935146063566207,-9.698378562927246,-1.879297971725464,7.94
-0.1689599603414535,-9.278773307800291,-1.4735714197158811,7.95
-0.0731445848941803,-9.595870971679688,-1.7229701280593872,7.96
-0.0539052337408065,-9.804764747619627,-1.6563647985458374,7.97
-0.180667757987976,-9.445082664489746,-1.6340149641036987,7.98
0.005780354142189,-9.8966703414917,-1.538063883781433,7.99
0.1129437983036041,-10.13654327392578,-1.618369460105896,7.1
-0.1610443145036697,-9.694358825683594,-1.4791014194488523,8.1
-0.0521720498800277,-9.81724739074707,-1.38007390499115,8.2
0.0178417470306158,-9.790614128112791,-1.2797118425369265,8.3
-0.3568416535854339,-9.263172149658203,-1.4767760038375854,8.4
-0.0709027722477912,-9.609094619750977,-1.367700219154358,8.5
0.3437661826610565,-9.77992820739746,-1.3624898195266724,8.6
-0.1284893602132797,-9.291254043579102,-1.3249183893203735,8.7
5.68777322769165e-05,-9.46436595916748,-1.206473708152771,8.8
0.1752483546733856,-9.93357753753662,-1.3084179162979126,8.9
-0.2501903474330902,-9.69146728515625,-1.500428557395935,8.1
-0.2205243855714798,-10.070697784423828,-1.2286367416381836,8.11
0.272855281829834,-10.183592796325684,-1.3298008441925049,8.12
-0.0628460273146629,-9.995018005371094,-1.372822642326355,8.12
-0.0104045998305082,-9.732053756713867,-1.1017212867736816,8.13
0.4449953734874725,-9.766402244567873,-1.0149266719818115,8.14
-0.1081743761897087,-9.422062873840332,-1.148629903793335,8.15
-0.6629763245582581,-9.393946647644045,-1.3064252138137815,8.16
0.3726996481418609,-10.138179779052734,-1.2187672853469849,8.17
0.0756939798593521,-10.03915023803711,-1.331415057182312,8.18
-0.4142698049545288,-9.423462867736816,-1.0653644800186155,8.19
0.080094039440155,-9.517878532409668,-1.0280436277389526,8.2
0.2346238493919372,-10.144506454467772,-1.152257800102234,8.21
-0.169669821858406,-9.845247268676758,-1.1752711534500122,8.22
-0.5033096671104431,-9.828934669494627,-0.7763452529907227,8.23
0.4202293455600738,-9.702958106994627,-0.303691565990448,8.24
0.5760020017623901,-9.166509628295898,-1.0734609365463257,8.25
-0.354838490486145,-9.51499843597412,-0.9865532517433168,8.26
-0.0116744618862867,-9.9990234375,-1.1053892374038696,8.27
0.0374233797192573,-10.129438400268556,-1.066786766052246,8.28
-0.0988791435956955,-9.789877891540527,-0.9757777452468872,8.29
-0.0981989279389381,-9.741087913513184,-0.9059918522834778,8.3
0.0618240237236022,-9.549348831176758,-0.7721208930015564,8.31
0.0318636447191238,-9.528116226196287,-0.831610918045044,8.32
0.0201776232570409,-9.784062385559082,-0.9241702556610109,8.33
-0.1486885696649551,-9.95711612701416,-0.9098595976829528,8.34
-0.3840107023715973,-9.395350456237791,-0.9953228235244752,8.35
0.0093285609036684,-10.20053005218506,-0.772093653678894,8.36
0.2555781304836273,-10.087078094482422,-1.0128777027130127,8.37
0.1156602799892425,-10.359539985656738,-1.038887619972229,8.38
0.1220983564853668,-9.652069091796877,-0.555232048034668,8.39
0.0640423521399498,-9.204111099243164,-0.6785146594047546,8.4
-0.1862946152687072,-9.759639739990234,-0.7498877048492432,8.41
-0.2561429440975189,-9.886075973510742,-0.7528844475746155,8.42
0.0305127669125795,-10.014005661010742,-0.6901818513870239,8.43
-0.0364814326167106,-9.796130180358888,-0.5008484721183777,8.44
-0.0937265753746032,-9.110403060913086,-0.6702325344085693,8.45
-0.1656225323677063,-9.7615385055542,-0.6113227009773254,8.46
-0.2986942529678345,-10.378334999084473,-0.8591040372848511,8.47
-0.03919617831707,-9.84195613861084,-0.8865507245063782,8.48
0.0600438117980957,-9.546754837036133,-1.0485475063323977,8.49
0.1095718741416931,-9.93666172027588,-0.7567952275276184,8.5
0.0811208486557006,-9.907671928405762,-0.5890845656394958,8.51
-0.016108926385641,-9.349559783935549,-0.7313207983970642,8.52
-0.2278425693511963,-9.55642032623291,-1.2020034790039062,8.53
-0.5052257776260376,-10.662470817565918,-0.4718403816223144,8.54
-0.2675127983093261,-9.873663902282717,-0.9898616075515748,8.55
0.0117332953959703,-9.546918869018556,-0.8717237710952759,8.56
-0.0787296444177627,-9.82088565826416,-0.8968545794487,8.57
-0.0728516653180122,-10.267528533935549,0.3312158286571502,8.58
0.4683439135551452,-8.896048545837402,-1.091471552848816,8.59
0.3251425325870514,-9.751145362854004,-1.2044757604599,8.6
-0.56134432554245,-10.352567672729492,-1.722436547279358,8.61
-0.0745590403676033,-10.08166790008545,-1.591413497924805,8.62
-0.1077354326844215,-9.572047233581545,-0.972964882850647,8.63
-0.0914206504821777,-9.049867630004885,-1.8836804628372192,8.64
-0.4695501029491424,-8.889944076538086,-0.8221462368965149,8.65
0.3015474379062652,-7.261711597442627,-5.11004114151001,8.66
-0.0511932596564292,-9.955543518066406,-5.706095218658447,8.67
1.040028095245361,-11.964649200439451,-3.7687952518463135,8.68
-0.4055535197257995,-11.784975051879885,-5.648665428161621,8.69
0.1374796628952026,-10.974603652954102,1.2435299158096311,8.7
-0.9873037934303284,-5.158139228820801,0.5422990918159485,8.71
1.8176939487457275,-4.344860076904297,-6.780198097229004,8.72
-1.04196298122406,-13.204458236694336,-5.146506786346436,8.73
0.1055647358298301,-15.40262508392334,1.0344072580337524,8.74
-0.07752625644207,-8.942325592041016,-2.869208812713623,8.75
0.9982821941375732,-4.1371355056762695,-5.16330623626709,8.76
-0.5076737403869629,-9.764476776123049,-4.546835899353027,8.77
0.2445872724056244,-12.787489891052246,2.2869560718536377,8.78
0.8588820695877075,-7.134219646453857,-4.673645496368408,8.79
-0.0754186511039733,-8.116507530212402,-7.715161323547363,8.8
-0.2428696900606155,-11.699193954467772,-0.451604813337326,8.81
-0.0790877267718315,-9.688413619995115,-5.62397575378418,8.82
0.2095767706632614,-9.265875816345217,-4.1222100257873535,8.83
-0.002069104462862,-9.521005630493164,-1.4935879707336426,8.84
0.2638919651508331,-8.332772254943848,-2.5190114974975586,8.85
-0.2953447997570038,-8.537142753601074,-3.1934311389923096,8.86
0.433996170759201,-10.477182388305664,-2.199657440185547,8.87
-0.1869598180055618,-9.630878448486328,-3.9961917400360103,8.88
0.0649482384324073,-10.252483367919922,-2.835141897201538,8.89
0.1020591035485267,-9.76641082763672,-2.0380313396453857,8.9
0.1275998950004577,-8.152528762817383,-2.311707735061645,8.91
-0.3549372255802154,-8.654455184936523,-3.146754503250122,8.92
0.5080267190933228,-10.386711120605469,-1.5257459878921509,8.93
-0.1545642763376236,-9.705443382263184,-3.522740602493286,8.94
0.1530090421438217,-10.671957969665527,-2.681307315826416,8.95
0.285880833864212,-9.511432647705078,-1.3302595615386963,8.96
-0.5258831977844238,-8.376443862915039,-3.777907609939575,8.97
0.1267967373132705,-9.963404655456545,-1.1320016384124756,8.98
-0.2146057337522506,-9.35831356048584,-2.354139566421509,8.99
-0.0080058509483933,-10.03587818145752,-3.5640761852264404,8.1
-0.148833155632019,-10.175944328308104,-0.7746349573135376,9.1
-0.0836368426680564,-9.311759948730469,-3.5456929206848145,9.2
-0.0636525079607963,-9.814629554748535,-1.6270593404769895,9.3
-0.1299595087766647,-9.169633865356444,-1.6392043828964231,9.4
0.2267932593822479,-9.246984481811523,-3.0060477256774902,9.5
0.2182333916425705,-9.51164436340332,-1.084680676460266,9.6
0.0105711445212364,-9.192596435546877,-2.831533193588257,9.7
-0.0348783731460571,-9.923741340637209,-1.687260389328003,9.8
0.2139384001493454,-10.098604202270508,-2.8500759601593018,9.9
-0.2173109799623489,-10.519257545471191,-1.9356491565704343,9.1
0.5458340048789978,-10.016969680786133,-2.062997341156006,9.11
-0.717830240726471,-9.464224815368652,-2.0883092880249023,9.12
0.4296783804893493,-9.668587684631348,-1.9221389293670652,9.13
-1.1142979860305786,-9.182169914245604,-2.4174623489379883,9.14
0.8175894021987915,-9.454471588134766,-1.7443273067474363,9.15
-0.8666722774505615,-9.210111618041992,-2.3442323207855225,9.16
0.95601886510849,-9.50839900970459,-1.712928056716919,9.17
-0.2454126626253128,-9.515059471130373,-2.416074752807617,9.17
0.9179938435554504,-9.70856475830078,-1.3313254117965698,9.18
-0.1246749684214592,-9.45195484161377,-2.1464598178863525,9.19
0.4220927953720093,-9.68160343170166,-1.5571725368499756,9.2
-0.7174618244171143,-9.265636444091797,-2.17444396018982,9.21
0.6839498281478882,-10.3790864944458,-1.85810661315918,9.22
-0.0097535038366913,-10.127097129821776,-2.2424395084381104,9.23
0.470217764377594,-9.760818481445312,-1.7054660320281982,9.24
-0.0708852857351303,-8.663272857666016,-2.04586124420166,9.25
0.4756813049316406,-8.73332691192627,-1.6024861335754397,9.26
-0.8736491203308105,-9.054757118225098,-2.006573438644409,9.27
-0.3698667585849762,-10.588289260864258,-2.531716108322144,9.28
-0.7879839539527893,-11.39810276031494,-2.3628005981445312,9.29
0.6327886581420898,-10.534395217895508,-2.0092451572418213,9.3
0.1870049685239792,-9.299393653869627,-1.477250576019287,9.31
0.636151909828186,-8.582064628601074,-1.3704346418380735,9.32
-0.0693463310599327,-8.864641189575195,-1.6635552644729614,9.33
0.6102410554885864,-9.398903846740724,-1.7275952100753784,9.34
0.0112931095063686,-9.781070709228516,-2.296567440032959,9.35
-0.2918437123298645,-9.577699661254885,-1.9044049978256223,9.36
-0.3313196897506714,-9.70605754852295,-1.7982782125473022,9.37
-0.5676320791244507,-9.31210708618164,-1.9156681299209597,9.38
-0.0039695361629128,-9.866705894470217,-1.5378321409225464,9.39
-0.3532789945602417,-9.463332176208496,-2.308733463287353,9.4
0.4277108609676361,-10.203360557556152,-1.840623497962952,9.41
0.0714019834995269,-9.783987045288086,-2.177043914794922,9.42
0.2224266529083252,-9.63307285308838,-1.8760615587234497,9.43
-0.1031824722886085,-9.604393005371094,-1.7729954719543457,9.44
-0.9314665198326112,-9.09500503540039,-1.7416173219680786,9.45
-0.0330946594476699,-9.737170219421388,-1.5464658737182615,9.46
0.7128301858901978,-10.169750213623049,-2.131153106689453,9.47
1.635991096496582,-10.580862045288086,-1.3301743268966677,9.48
2.6257517337799072,-10.283339500427246,-1.4463235139846802,9.49
3.840698719024658,-9.55545139312744,-0.7034667134284973,9.5
4.328147411346436,-9.22578239440918,-0.5123943090438843,9.51
4.277225494384766,-9.64030647277832,-0.4400000274181366,9.52
4.103576183319092,-10.065252304077148,-0.9820749163627625,9.53
2.895282745361328,-10.215414047241213,-1.114701271057129,9.54
0.8086190223693848,-9.43560028076172,-1.6158905029296875,9.55
-0.857271671295166,-9.488473892211914,-2.2195193767547607,9.56
-3.248304605484009,-9.100870132446287,-2.0898876190185547,9.57
-3.1475155353546143,-10.048307418823242,-2.6439766883850098,9.58
-2.7975685596466064,-9.994620323181152,-2.1037635803222656,9.59
-0.6288109421730042,-10.846698760986328,-2.618934392929077,9.6
-0.5795941948890686,-9.478044509887695,-2.115601062774658,9.61
-0.2520872056484222,-9.121192932128906,-2.20349669456482,9.62
-0.6636494994163513,-8.33759880065918,-2.1706671714782715,9.63
0.0809877067804336,-8.603201866149902,-1.5486539602279663,9.64
0.769089937210083,-8.996371269226074,-1.9265323877334597,9.65
0.7449932098388672,-10.333581924438477,-1.629307746887207,9.66
-0.2276844531297683,-10.189695358276367,-2.247258186340332,9.67
-0.2940402328968048,-10.01257610321045,-1.9301272630691528,9.68
-0.611389696598053,-10.071426391601562,-2.01568341255188,9.69
-0.8613147735595703,-11.334452629089355,-1.5142310857772827,9.7
-2.285186052322388,-9.94188117980957,-0.9188968539237976,9.71
-3.064481735229492,-8.616900444030762,-1.54682195186615,9.72
-3.8689353466033936,-8.448369979858398,-2.1712486743927,9.73
-5.334240436553955,-10.785482406616213,0.8207895159721375,9.74
-2.3049449920654297,-9.64678192138672,0.3978140652179718,9.75
-3.777740001678467,-11.102622985839844,0.0747179761528968,9.76
-6.510120391845703,-9.18243408203125,1.3741459846496582,9.77
-2.058443546295166,-9.493871688842772,0.1674457192420959,9.78
-1.8871870040893557,-10.150675773620604,1.1192253828048706,9.79
0.2556694447994232,-9.219372749328612,1.4276034832000732,9.8
0.9195802211761476,-9.018094062805176,-0.0581908151507377,9.81
1.40636944770813,-9.21098804473877,-1.1181987524032593,9.82
1.955832600593567,-13.060340881347656,-0.5585364103317261,9.83
0.7911843061447144,-10.575955390930176,4.1436309814453125,9.84
0.8996185064315796,-6.840959072113037,-0.1275549232959747,9.85
-1.1797014474868774,-8.582474708557129,-0.7321411371231079,9.86
-0.2904238402843475,-11.196847915649414,1.0056447982788086,9.87
-0.4349981546401977,-11.876529693603516,-0.9708902835845948,9.88
-0.5565323233604431,-10.538793563842772,-0.8462398052215576,9.89
-0.8801082372665405,-9.3623046875,0.2696557343006134,9.9
-0.3443008959293365,-8.793590545654297,0.1193342134356498,9.91
0.0214983653277158,-9.162898063659668,0.3578857779502868,9.92
0.1808955669403076,-10.01150131225586,-0.3813649117946625,9.93
-0.3744960129261017,-10.201562881469728,-0.4730422496795654,9.94
-0.1197420209646225,-10.514511108398438,-0.6207683086395264,9.95
0.1221497058868408,-9.950834274291992,-0.3322427570819855,9.96
-0.0531993955373764,-9.50130558013916,-0.2404426485300064,9.97
-0.5403713583946228,-9.69198989868164,-0.4888474345207214,9.98
-0.115653745830059,-9.843441009521484,-0.4733170866966247,9.99
-0.1770611852407455,-9.669376373291016,-0.916319727897644,9.1
-0.0677882954478263,-9.842628479003906,-0.7192476391792297,10.1
-0.0670810937881469,-9.963135719299316,-0.5234301686286926,10.2
-0.0290395431220531,-9.77294921875,-0.8952962756156921,10.3
-0.0777872875332832,-9.891952514648438,-0.7003579139709473,10.4
-0.3830361366271972,-9.715372085571287,-0.6146471500396729,10.5
-0.0683482885360717,-9.543123245239258,-1.0212159156799316,10.6
0.0091299936175346,-10.080764770507812,-0.8889320492744446,10.7
0.0198579486459493,-10.241586685180664,-0.6441202759742737,10.8
0.0519164875149726,-9.539068222045898,-0.7820332050323486,10.9
-0.1657575219869613,-9.641865730285645,-0.7182887196540833,10.1
-0.3353675007820129,-9.863616943359377,-0.7836363911628723,10.11
-0.3235247433185577,-9.816981315612791,-0.5162269473075867,10.12
0.0115025267004966,-9.17819881439209,-1.1727410554885864,10.13
-0.1907582581043243,-10.280817985534668,-1.06313157081604,10.14
-0.4412577152252197,-10.621230125427246,0.2110881507396698,10.15
0.6597033739089966,-8.866935729980469,-0.5840962529182434,10.16
0.3063656985759735,-9.32388973236084,-1.356943964958191,10.17
-0.5696545839309692,-11.190898895263672,-0.8751265406608582,10.18
-0.2914157807826996,-10.369030952453612,0.2567469477653503,10.19
0.4301700592041015,-8.279580116271973,-1.32068932056427,10.2
-0.7793401479721069,-9.264299392700195,-1.0402145385742188,10.21
-0.31998211145401,-10.196324348449709,-1.2222883701324463,10.22
0.0638868510723114,-10.872385025024414,-1.0270862579345703,10.22
-0.3136537969112396,-9.996465682983398,-0.3901554644107818,10.23
-0.0091239549219608,-9.46925926208496,0.4321260154247284,10.24
0.0820453539490699,-8.817983627319336,0.2945887148380279,10.25
0.1925206929445266,-9.068480491638184,-0.7927957773208618,10.26
0.1541987210512161,-11.12172508239746,-2.1740567684173584,10.27
-1.0616469383239746,-12.603341102600098,0.5380241274833679,10.28
-0.016353877261281,-9.656207084655762,2.5026652812957764,10.29
0.2257009148597717,-6.972075462341309,1.289907693862915,10.3
-0.0560398772358894,-6.982381343841553,-0.9662858247756958,10.31
-0.4531909525394439,-11.306577682495115,-2.661508321762085,10.32
-0.6066305637359619,-15.511982917785645,-1.9417879581451416,10.33
-0.1028001233935356,-11.319952011108398,4.097466945648193,10.34
0.7407042384147644,-6.974576473236084,-0.1322698146104812,10.35
-1.864203929901123,-7.101876735687256,3.994673013687134,10.36
1.683680295944214,-6.679441928863525,0.1653420329093933,10.37
-0.5893962383270264,-10.186410903930664,-4.642935752868652,10.38
-0.101150281727314,-17.651166915893555,-3.294585466384888,10.39
-1.550959229469299,-12.71793270111084,6.006792068481445,10.4
2.0857841968536377,-3.4750514030456543,-1.1459985971450806,10.41
0.0309943500906229,-4.104825496673584,-3.344176769256592,10.42
2.51132869720459,-11.474909782409668,1.595799207687378,10.43
1.7052525281906128,-12.247344970703123,-3.1780776977539062,10.44
0.6999842524528503,-11.719965934753418,-4.521949291229248,10.45
0.8082388639450073,-10.58581829071045,-2.372037887573242,10.46
-0.6550788283348083,-8.07711124420166,-2.561854839324951,10.47
0.164400428533554,-7.213812351226807,-3.413813829421997,10.48
0.4629737138748169,-10.940858840942385,-3.498757123947144,10.49
-1.1732690334320068,-11.665827751159668,-2.097034215927124,10.5
-2.1629185676574707,-9.617984771728516,-2.1265671253204346,10.51
0.0041600354015827,-7.807644367218018,-1.7662571668624878,10.52
0.4412046372890472,-7.783732891082764,-1.5012961626052856,10.53
-0.2494433969259262,-9.608747482299805,-2.9702868461608887,10.54
0.8841677904129028,-11.489583969116213,-2.215163469314575,10.55
0.21331387758255,-10.754809379577637,-2.474019289016724,10.56
-0.4299211800098419,-9.315204620361328,-2.031675338745117,10.57
-0.0272897016257047,-8.341793060302734,-1.6556519269943235,10.58
-0.9717072248458862,-8.953429222106934,-1.9477386474609373,10.59
0.4465609490871429,-10.29220962524414,-1.920473575592041,10.6
-0.1082653477787971,-10.134626388549805,-2.1752266883850098,10.61
0.0138806905597448,-9.735060691833496,-1.9306098222732544,10.62
0.1175442039966583,-9.277050018310549,-1.527571439743042,10.63
-0.6334827542304993,-9.3248929977417,-1.3839259147644043,10.64
0.1243076175451278,-9.571480751037598,-1.7980254888534546,10.65
0.6932503581047058,-10.099748611450195,-2.150298595428467,10.66
-0.4831795990467071,-9.965272903442385,-2.1501169204711914,10.67
-0.0548580214381217,-9.574380874633787,-1.9691563844680784,10.68
-0.1402842253446579,-9.099007606506348,-1.7568979263305664,10.69
-0.838535726070404,-9.04947280883789,-2.696936845779419,10.7
-0.0819507539272308,-10.06093978881836,-2.7463467121124268,10.71
0.9897682666778564,-10.516669273376465,-1.884039640426636,10.72
-0.2721496522426605,-9.448741912841797,-2.0108835697174072,10.73
0.0087695177644491,-8.945220947265625,-1.7619595527648926,10.74
-0.4568985998630523,-9.218668937683104,-1.6853107213974,10.75
-0.9191198348999025,-9.622410774230955,-2.508775234222412,10.76
9.65595245361328e-05,-9.98794937133789,-2.3489580154418945,10.77
0.1583053767681121,-9.275838851928713,-2.8694725036621094,10.78
-0.2798226177692413,-8.531536102294922,-3.85452938079834,10.79
0.0707035660743713,-11.088884353637695,-4.396437644958496,10.8
0.5200296640396118,-11.087030410766602,-0.6959273219108582,10.81
-1.1510717868804932,-8.183605194091797,-1.180309176445007,10.82
0.2223992496728897,-8.084009170532227,-1.4698859453201294,10.83
-0.062131829559803,-9.737195014953612,-1.448269605636597,10.84
-0.6091901063919067,-11.056148529052734,-2.493094682693481,10.85
0.1463231742382049,-10.347770690917969,-2.420317888259888,10.86
0.3027114868164062,-9.910141944885254,0.0270068421959877,10.87
0.5058367848396301,-8.33668041229248,-1.813717007637024,10.88
0.7351592183113098,-10.556560516357422,0.0655376240611076,10.89
-0.1709834635257721,-10.578457832336426,2.2009592056274414,10.9
-0.4830135703086853,-7.002696514129639,-2.731633424758911,10.91
0.3676299452781677,-9.41393756866455,-2.522012948989868,10.92
0.3450751900672912,-12.372113227844238,-2.345615863800049,10.93
-1.7223389148712158,-11.879217147827148,0.3285701870918274,10.94
0.8155304789543152,-7.787129402160644,-0.2111097574234008,10.95
1.052229642868042,-6.807675361633301,-1.022721290588379,10.96
0.3356440365314483,-9.851900100708008,-1.037827968597412,10.97
-0.9274235367774964,-10.96436595916748,-2.823422431945801,10.98
-0.0975047200918197,-11.197360038757324,-2.801634788513184,10.99
-0.423216164112091,-9.689201354980469,-2.253854274749756,10.1
0.1908833533525467,-8.578235626220703,-1.3982268571853638,11.1
0.2496971189975738,-8.220837593078613,-1.7378147840499878,11.2
-0.857085645198822,-9.33524227142334,-3.826639890670776,11.3
0.1409597545862198,-11.932960510253906,-2.1063930988311768,11.4
-0.2870303690433502,-10.187891960144045,-2.2483131885528564,11.5
-0.0776242986321449,-8.498308181762695,-1.6784495115280151,11.6
0.6563981175422668,-8.633123397827148,-1.262166142463684,11.7
-0.1269220560789108,-10.085882186889648,-2.0366857051849365,11.8
-0.9003291130065918,-11.47343921661377,-1.329261064529419,11.9
-0.8211964964866638,-10.902544021606444,-0.2143082618713379,11.1
-1.2793338298797607,-8.791656494140625,0.832916796207428,11.11
-0.9095629453659058,-7.195405960083008,0.269086629152298,11.12
-0.8659324645996094,-7.970810890197754,-1.5967344045639038,11.13
-0.5992633700370789,-10.389429092407228,-2.9675633907318115,11.14
0.6083331108093262,-13.993413925170898,-3.290976524353028,11.15
0.1698514968156814,-13.597944259643556,3.548083066940308,11.16
2.047443151473999,-8.149291038513184,3.933055639266968,11.17
0.8004193305969238,-6.467507839202881,2.610419273376465,11.18
-0.2506110668182373,-5.296846866607666,1.373222589492798,11.19
-1.5360828638076782,-9.235758781433104,-4.884116172790527,11.2
0.9144798517227172,-14.290779113769531,-3.1512527465820312,11.21
-0.6898771524429321,-15.473706245422363,-2.604236602783203,11.22
-0.0879432037472724,-9.650673866271973,2.1361563205718994,11.23
1.4654303789138794,-4.945284366607666,-2.707592010498047,11.24
-1.5066826343536377,-10.093381881713867,3.318621873855591,11.25
-0.7930523753166199,-9.245192527770996,4.458774566650391,11.26
0.1001007929444313,-8.582915306091309,-1.6664992570877075,11.26
-0.3317708373069763,-9.854744911193848,-1.7608263492584229,11.27
-0.6330558657646179,-10.58164882659912,-3.4644272327423096,11.28
0.7916597723960876,-11.601269721984863,-2.6725053787231445,11.29
0.3958945870399475,-9.751300811767578,-2.4964873790740967,11.3
-0.0191197395324707,-8.75775146484375,-1.621692419052124,11.31
-0.3437525331974029,-8.591104507446289,-1.467362403869629,11.32
-0.0737080797553062,-9.485530853271484,-1.8893063068389893,11.33
-0.0681126490235328,-10.146642684936523,-2.0759356021881104,11.34
0.0465397462248802,-10.353447914123535,-2.5505528450012207,11.35
0.0998878106474876,-10.101760864257812,-2.1315019130706787,11.36
-0.1257262229919433,-9.659504890441896,-2.15918517112732,11.37
-0.0304800346493721,-9.13364601135254,-1.57766854763031,11.38
-0.0619358122348785,-9.090320587158203,-1.883696436882019,11.39
0.0933604687452316,-9.52889633178711,-2.025074243545532,11.4
0.0715456902980804,-9.794153213500977,-2.1475627422332764,11.41
0.0106233339756727,-9.989177703857422,-2.250058174133301,11.42
-0.029536310583353,-9.628679275512695,-2.6012768745422363,11.43
-0.3297823965549469,-8.91179370880127,-2.132943630218506,11.44
0.529604434967041,-7.149974822998047,-5.104367256164551,11.45
0.2850389182567596,-10.887454986572266,-6.571609020233154,11.46
-0.214098647236824,-13.377238273620604,-0.9083810448646544,11.47
-0.3789856135845184,-8.870832443237305,-2.123406887054444,11.48
0.6373705267906189,-6.562712669372559,-2.636139154434204,11.49
0.013977775350213,-8.873161315917969,-1.0105715990066528,11.5
-0.2982164621353149,-10.554085731506348,-2.184408664703369,11.51
0.0235630962997674,-10.836048126220703,-2.695774555206299,11.52
0.2937430441379547,-9.514575004577637,-3.16644287109375,11.53
-0.1973268091678619,-8.99683952331543,-3.000474691390991,11.54
-0.0838563367724418,-9.60017204284668,-3.371929883956909,11.55
0.0063595045357942,-10.245984077453612,-1.197285294532776,11.56
-0.071814589202404,-8.791350364685059,-2.096989154815674,11.57
0.2856004238128662,-9.11277198791504,-1.6604864597320557,11.58
-0.1620180904865265,-10.598962783813477,-0.9781000018119812,11.59
0.0482984706759452,-10.8380708694458,-0.404934287071228,11.6
-0.5012282133102417,-11.275630950927734,0.5860900282859802,11.61
-0.0275673996657133,-8.473337173461914,2.972745418548584,11.62
0.9498891830444336,-5.385874271392822,-2.574897527694702,11.63
-1.1995103359222412,-9.947487831115724,-2.804615974426269,11.64
-0.7125027775764465,-12.988202095031738,-1.7809147834777832,11.65
0.2641526758670807,-11.744004249572754,-1.5487128496170044,11.66
0.6036927700042725,-11.495938301086426,-2.7534666061401367,11.67
-1.4071760177612305,-10.798357009887695,5.443264961242676,11.68
1.2361818552017212,-4.020707607269287,3.9845378398895264,11.69
0.389867901802063,-4.0458760261535645,-4.482052326202393,11.7
-1.7936429977416992,-11.780335426330566,-1.5866400003433228,11.71
-0.1950055807828903,-15.797855377197266,-2.323230743408203,11.72
0.0017136726528406,-12.837806701660156,-0.0480564534664154,11.73
1.614875555038452,-6.560131549835205,-2.904625415802002,11.74
-1.0169223546981812,-9.864126205444336,-0.638080894947052,11.75
-1.3182376623153689,-10.138032913208008,6.480637550354004,11.76
1.9640542268753047,-7.152484893798828,-2.0178370475769043,11.77
-1.7992790937423706,-11.551443099975586,0.4303705990314483,11.78
-0.4382390975952148,-11.332526206970217,1.1886810064315796,11.79
0.040485605597496,-10.293200492858888,-0.4766173660755157,11.8
0.1898895800113678,-8.935214042663574,-1.2945212125778198,11.81
-0.4590207040309906,-8.931000709533691,-0.6941728591918945,11.82
0.4257159233093261,-9.915879249572754,-0.8297407627105713,11.83
-0.3878743052482605,-10.58447551727295,-0.7351981997489929,11.84
0.139635369181633,-9.673468589782717,0.6393661499023438,11.85
-0.0808456614613533,-9.383881568908691,-0.0122750699520111,11.86
0.1137498170137405,-9.663972854614258,-0.3087341487407684,11.87
-0.298009306192398,-9.756243705749512,0.3242281973361969,11.88
0.1066524535417556,-10.012056350708008,-1.1527773141860962,11.89
-0.6890013217926025,-10.409745216369627,-1.5379618406295776,11.9
-0.565669596195221,-9.996152877807615,0.4049364626407623,11.91
0.0975004509091377,-9.001448631286621,-0.2407494783401489,11.92
-0.0346340835094451,-8.882843971252441,-0.8733732104301453,11.93
0.2246095687150955,-9.799713134765623,0.1060738041996955,11.94
0.2997655570507049,-10.46920108795166,-1.5504053831100464,11.95
-0.0570825189352035,-10.79576301574707,-1.4330127239227295,11.96
-0.2238501906394958,-10.089921951293944,-0.2022205591201782,11.97
0.3157654702663421,-9.104434967041016,-1.5907164812088013,11.98
0.1381709277629852,-10.284466743469238,-0.6721711158752441,11.99
0.7376623749732971,-9.465015411376951,-0.3341588675975799,11.1
1.0669918060302734,-9.674171447753906,-1.2590382099151611,12.1
0.4896334111690521,-10.073689460754396,-0.0113158822059631,12.2
-0.6414811611175537,-8.859404563903809,-1.4270787239074707,12.3
-1.2785152196884155,-10.93509292602539,-0.5488634705543518,12.4
-0.3060864508152008,-9.7046480178833,-0.9586381912231444,12.5
-1.9002968072891235,-10.585400581359863,-2.11525297164917,12.6
-2.1144187450408936,-9.920943260192873,-0.5304775834083557,12.7
-3.0315911769866943,-8.648202896118164,-2.553645133972168,12.8
-2.705152750015259,-9.289583206176758,-0.5622206330299377,12.9
-2.946368932723999,-8.271193504333496,-1.8854907751083372,12.1
-3.368265151977539,-9.862048149108888,-1.7371797561645508,12.11
-3.078416585922241,-9.23795223236084,-1.7233867645263672,12.12
-2.0975937843322754,-10.55027961730957,-2.0591273307800293,12.13
-1.110440731048584,-10.322809219360352,-1.0014539957046509,12.14
0.7835730314254761,-9.626453399658203,-2.290281295776367,12.15
0.2102732360363006,-10.599394798278809,-0.0038297399878501,12.16
0.8253966569900513,-8.53991413116455,-1.1985844373703003,12.17
-0.2314317524433136,-9.839921951293944,-1.5514764785766602,12.18
0.0949581265449523,-9.495558738708496,-0.2771591544151306,12.19
2.443385124206543,-9.539010047912598,-1.1235588788986206,12.2
1.707988977432251,-10.029438972473145,-1.301591157913208,12.21
0.961489200592041,-10.283005714416504,-0.311637818813324,12.22
-1.3477180004119873,-9.270336151123049,-1.741710186004639,12.23
-0.9628683924674988,-10.117082595825195,-1.272390604019165,12.24
-1.375028133392334,-9.432178497314451,-1.2606643438339231,12.25
-1.3926706314086914,-10.22704029083252,-1.8839318752288816,12.26
-3.2784435749053955,-9.507497787475586,-1.8689202070236208,12.27
-2.456029176712036,-9.534586906433104,-1.627263069152832,12.28
-1.890799045562744,-9.27505588531494,-1.5936933755874634,12.29
0.1736157536506652,-8.870031356811523,-0.8003027439117432,12.3
-0.4805249571800232,-9.73019027709961,-1.909919023513794,12.31
-0.5404910445213318,-10.693243980407717,-1.312063694000244,12.31
-0.6096460819244385,-10.243224143981934,-1.62309730052948,12.32
-0.6419114470481873,-9.326723098754885,-1.1570369005203247,12.33
-0.3324001133441925,-8.822531700134277,-1.075415849685669,12.34
0.255478024482727,-9.529379844665527,-1.429782509803772,12.35
0.2082104533910751,-10.81126880645752,-1.694955825805664,12.36
-0.4119534790515899,-10.249053955078123,-1.6393259763717651,12.37
-1.186730980873108,-9.239303588867188,-1.3434584140777588,12.38
-0.7470420598983765,-8.82099437713623,-0.9545948505401612,12.39
-0.7617781758308411,-9.341315269470217,-1.3272488117218018,12.4
-0.1804143190383911,-9.674446105957031,-1.4298194646835327,12.41
-0.59136563539505,-10.371070861816406,-1.7627251148223877,12.42
-0.3519290685653686,-9.933245658874512,-1.7622647285461426,12.43
-0.5449934601783752,-9.735034942626951,-1.1707210540771484,12.44
-0.6906121373176575,-8.709029197692871,-1.4851542711257937,12.45
-0.7878672480583191,-8.977253913879395,-1.036450743675232,12.46
-0.6486638784408569,-9.844566345214844,-1.8256865739822388,12.47
-0.3831793367862701,-10.358165740966797,-1.699527144432068,12.48
-0.2295866459608078,-10.993383407592772,-1.9620906114578247,12.49
-0.5373721122741699,-9.781810760498049,-1.487140655517578,12.5
-0.3945984542369842,-9.433860778808594,-1.0750211477279663,12.51
-0.96673846244812,-8.62215518951416,-1.4198834896087646,12.52
-0.4350829720497131,-9.451229095458984,-1.2043370008468628,12.53
-0.8943700194358826,-9.520732879638672,-1.81586229801178,12.54
-0.7407886385917664,-10.225627899169922,-2.030014753341675,12.55
-0.7608336210250854,-10.3341646194458,-1.9923712015151975,12.56
-0.6002689599990845,-10.163126945495604,-1.7600481510162354,12.57
-0.3586480319499969,-9.589096069335938,-1.5207486152648926,12.58
-0.5551953911781311,-9.355942726135254,-1.491523265838623,12.59
-0.6246953010559082,-9.462974548339844,-1.454758644104004,12.6
-0.4607621431350708,-9.680983543395996,-1.9483777284622192,12.61
-0.4990397095680237,-10.149600982666016,-1.412484884262085,12.62
-0.369922935962677,-9.327916145324709,-1.922160029411316,12.63
-0.3843668699264526,-9.295269012451172,-1.1223052740097046,12.64
0.2689851820468902,-9.41547393798828,-0.9541021585464478,12.65
2.8217718601226807,-9.583992004394531,-0.7026455998420715,12.66
3.4282381534576416,-9.37788200378418,-0.3728802800178528,12.67
2.9553136825561523,-8.868319511413574,-0.4535057246685028,12.68
2.5515265464782715,-9.909740447998049,-0.958820939064026,12.69
2.718322277069092,-11.282692909240724,-1.705095887184143,12.7
3.1245100498199463,-11.385587692260742,-1.5312798023223877,12.71
2.913403034210205,-10.323112487792969,-1.2935467958450315,12.72
2.9506986141204834,-9.259843826293944,-0.883452296257019,12.73
2.9412219524383545,-9.280059814453123,-0.8049206733703613,12.74
3.10685133934021,-9.181940078735352,-1.2645752429962158,12.75
3.085826873779297,-9.38861083984375,-1.3072693347930908,12.76
3.49826979637146,-9.785194396972656,-1.4828863143920898,12.77
3.5556623935699463,-10.291922569274902,-1.4196531772613523,12.78
1.596542239189148,-10.151705741882324,-1.6212074756622314,12.79
1.2919187545776367,-9.816737174987791,-1.5530678033828735,12.8
-0.8236516118049622,-9.57477855682373,-1.54875648021698,12.81
-0.3049794733524322,-9.377702713012695,-1.023261785507202,12.82
0.1595938503742218,-9.132530212402344,-1.2484036684036257,12.83
0.4568852186203003,-8.983068466186523,-1.2705729007720947,12.84
0.3424589037895202,-9.71828556060791,-1.6084842681884766,12.85
0.6752040982246399,-10.151458740234377,-1.845285534858704,12.86
0.6819283962249756,-10.575264930725098,-2.028654098510742,12.87
0.8553983569145203,-10.080363273620604,-1.5646073818206787,12.88
1.4493707418441772,-9.680988311767578,-1.7754178047180176,12.89
0.4137164056301117,-9.753203392028809,-1.2720001935958862,12.9
0.436038076877594,-9.219865798950195,-1.2643126249313354,12.91
0.1908010095357895,-9.90810203552246,-1.979116678237915,12.92
0.3250659108161926,-9.551908493041992,-1.3597168922424316,12.93
0.6870068907737732,-9.73638153076172,-1.8492763042449951,12.94
0.2604115605354309,-9.791274070739746,-2.005872964859009,12.95
0.6612514853477478,-9.611756324768066,-1.3346738815307615,12.96
0.4297488927841186,-10.01716136932373,-1.66033935546875,12.97
0.4420220255851745,-9.503206253051758,-1.6629717350006104,12.98
0.6664349436759949,-10.292180061340332,-1.5709364414215088,12.99
0.5577629804611206,-9.831071853637695,-1.8825374841690063,12.1
0.4544239342212677,-9.258258819580078,-1.4520796537399292,13.1
0.4641825258731842,-9.178715705871582,-1.5297960042953491,13.2
0.4376144707202911,-9.023038864135742,-1.1628717184066772,13.3
0.1733035594224929,-9.602184295654297,-1.8469159603118896,13.4
0.5819999575614929,-9.420001029968262,-1.491457223892212,13.5
0.520540177822113,-9.902974128723145,-1.4695515632629397,13.6
0.7936704158782959,-9.866005897521973,-2.086045742034912,13.7
0.5874751210212708,-10.429409980773926,-1.4459038972854614,13.8
1.1129307746887207,-9.620770454406738,-1.839950442314148,13.9
1.006242752075195,-9.361679077148438,-1.700138807296753,13.1
0.7870014905929565,-8.669846534729004,-0.924627125263214,13.11
-0.7405961155891418,-9.767919540405272,-2.329809665679932,13.12
0.0351637154817581,-11.21717929840088,-2.157780170440674,13.13
0.3231258988380432,-10.908935546875,-2.207568645477295,13.14
0.522733211517334,-9.657262802124023,-1.308197259902954,13.15
1.4191128015518188,-8.598155975341797,-1.119472622871399,13.16
0.8573676347732544,-9.814413070678713,-1.4523431062698364,13.17
0.6020309329032898,-9.341315269470217,-1.5097635984420776,13.18
1.095555305480957,-9.235379219055176,-1.746152400970459,13.19
0.158042699098587,-9.229832649230955,-1.4175927639007568,13.2
0.576511561870575,-8.938258171081543,-1.1591876745224,13.21
0.3509728908538818,-9.806185722351074,-1.7576168775558472,13.22
0.24555304646492,-9.73811149597168,-1.2847254276275637,13.23
0.8712732791900635,-10.36400318145752,-1.9630906581878664,13.24
0.6229038238525391,-10.384760856628418,-2.1159794330596924,13.25
0.8378782868385315,-9.913801193237305,-1.3355847597122192,13.26
0.3432453870773315,-9.351048469543455,-1.751543641090393,13.27
0.5829823613166809,-9.132699966430664,-1.546751856803894,13.28
0.1739724427461624,-9.623071670532228,-1.7287189960479736,13.29
0.5565985441207886,-10.008588790893556,-1.93434476852417,13.3
0.6471372246742249,-10.162853240966797,-1.5892667770385742,13.31
0.7071781754493713,-9.857025146484377,-1.7024692296981812,13.32
0.5660640001296997,-9.17609691619873,-1.0737725496292114,13.33
0.2265218943357467,-9.310483932495115,-1.476683259010315,13.34
0.798052191734314,-9.79274082183838,-1.462998628616333,13.35
0.250325471162796,-10.208854675292969,-1.7353277206420898,13.36
0.3704213201999664,-9.567350387573242,-1.9810696840286253,13.36
0.4947890937328338,-9.36019229888916,-1.2552871704101562,13.37
-0.0690789669752121,-9.064156532287598,-1.4786970615386963,13.38
-0.0326931402087211,-9.558542251586914,-1.6131272315979004,13.39
0.1849077045917511,-9.794151306152344,-1.4445534944534302,13.4
0.8358393907546997,-9.602184295654297,-1.874354362487793,13.41
0.6865383386611938,-10.104081153869627,-1.6568551063537598,13.42
0.6534294486045837,-10.05834674835205,-2.219565153121948,13.43
1.1496727466583252,-10.215238571166992,-1.8473981618881223,13.44
0.9826556444168092,-9.743826866149902,-2.0118324756622314,13.45
0.8702119588851929,-9.530285835266112,-1.201418161392212,13.46
-0.1397694796323776,-8.950413703918457,-1.7844772338867188,13.47
0.7719988822937012,-9.488470077514648,-1.123653769493103,13.48
0.140604019165039,-10.22411823272705,-1.8658742904663088,13.49
0.5385331511497498,-10.010488510131836,-1.6681419610977173,13.5
0.5719512701034546,-9.439382553100586,-1.501777172088623,13.51
1.6073298454284668,-8.395207405090332,-1.2218754291534424,13.52
-0.4498456120491028,-8.19349193572998,-1.3355213403701782,13.53
-1.248157262802124,-8.369908332824707,-5.340937614440918,13.54
-0.9035775065422058,-10.245719909667969,-5.76505184173584,13.55
-0.3936819732189178,-11.4496488571167,-5.584636688232422,13.56
-0.6157224774360657,-9.75810718536377,-5.960480690002441,13.57
-1.8528976440429688,-8.966830253601074,-5.123147487640381,13.58
-0.6970276832580566,-7.978666305541992,-4.5258989334106445,13.59
-3.165894031524658,-8.10411548614502,-5.352447032928467,13.6
-1.34904944896698,-8.433706283569336,-5.60032844543457,13.61
-2.9064857959747314,-8.778115272521973,-6.048004627227783,13.62
-1.5754973888397217,-9.250528335571287,-6.375781536102295,13.63
-0.8677107095718384,-9.85324001312256,-6.617948055267334,13.64
-0.0491543412208557,-9.540350914001465,-5.690516948699951,13.65
1.2214484214782717,-8.695212364196777,-7.126867771148682,13.66
0.5024868845939636,-9.842637062072754,-5.822824954986572,13.67
0.2976120114326477,-9.21320915222168,-5.837703227996826,13.68
0.265542596578598,-8.376643180847168,-5.283877849578857,13.69
0.3096795082092285,-8.957818031311035,-5.685909271240234,13.7
0.2259746491909027,-10.900176048278809,-4.993258476257324,13.71
-0.4135935306549072,-11.172599792480469,-1.2274476289749146,13.72
0.1345981061458587,-6.2909440994262695,-2.5724668502807617,13.73
-0.4483213722705841,-5.982897758483887,-7.268297672271728,13.74
0.4061591327190399,-12.621200561523438,-3.424006938934326,13.75
-0.2683733403682709,-13.070019721984863,-1.8726780414581297,13.76
0.4870534241199493,-8.940710067749023,-2.750319719314575,13.77
0.0048706587404012,-6.204075813293457,0.2400195598602295,13.78
0.095356673002243,-5.226527690887451,-6.339812278747559,13.79
-0.0818978920578956,-11.591769218444824,-6.21274471282959,13.8
-0.3838609755039215,-15.23323917388916,-2.871816873550415,13.81
0.1258095651865005,-10.824005126953123,-2.190253257751465,13.82
0.3947035074234009,-6.61584997177124,-0.3607332408428192,13.83
0.4338491559028625,-3.22550368309021,-1.34047269821167,13.84
-0.2719758749008178,-8.376995086669922,-8.857629776000977,13.85
-0.6023342609405518,-16.8026065826416,-0.3501143157482147,13.86
0.3861785531044006,-13.227643966674805,-3.01800537109375,13.87
-0.0318389274179935,-5.213043689727783,-3.084020137786865,13.88
0.0942918956279754,-4.581974506378174,-5.442507743835449,13.89
0.1944576501846313,-11.542106628417969,-1.7644189596176147,13.9
0.2152755558490753,-13.202760696411133,-1.934800148010254,13.91
-0.0666659846901893,-9.90980052947998,-2.023313045501709,13.92
-0.3729578852653503,-6.916586875915527,0.4504864513874054,13.93
0.9532605409622192,-5.896040916442871,-6.264240741729736,13.94
-0.7294818162918091,-12.425817489624023,-4.804399967193604,13.95
0.477632611989975,-11.021960258483888,-1.1795620918273926,13.96
-0.2574551999568939,-7.1552605628967285,-10.548625946044922,13.97
1.0641664266586304,-11.264702796936035,-3.6008403301239014,13.98
-0.3928076028823852,-9.6770601272583,-3.674774169921875,13.99
0.6055704355239868,-8.537495613098145,-6.1190505027771,13.1
0.8932456374168396,-10.80587387084961,-1.3072668313980105,14.1
-0.925147533416748,-9.80531406402588,1.269782304763794,14.2
0.2528075277805328,-5.238481521606445,-3.404981851577759,14.3
-0.0726783499121666,-8.542823791503906,-5.460131645202637,14.4
0.1771110594272613,-12.893312454223633,1.1094577312469482,14.5
-0.1401842087507248,-9.166330337524414,-6.269543170928955,14.6
-0.6026099324226379,-10.898120880126951,-4.6430206298828125,14.7
-0.6905931234359741,-10.939268112182615,0.1232307031750679,14.8
-0.4954094290733337,-7.825118541717529,-2.5258922576904297,14.9
0.3150240480899811,-7.894484996795654,-4.101568698883057,14.1
-0.0319717153906822,-10.220867156982422,0.5004287958145142,14.11
0.5629997253417969,-8.898653984069824,-3.271606206893921,14.12
0.0537021160125732,-9.702610969543455,-3.4399337768554688,14.13
0.4560986757278442,-10.077115058898926,-0.6043221354484558,14.14
0.7524539828300476,-9.788541793823242,-3.922021150588989,14.15
0.0120856501162052,-9.991308212280272,-2.022993326187134,14.16
0.1158650070428848,-9.60315990447998,-1.5517992973327637,14.17
-0.3558317124843597,-9.07131576538086,-2.9846293926239014,14.18
-0.0659505501389503,-9.267842292785645,-0.8495816588401794,14.19
-0.5748704671859741,-8.963044166564941,-3.283310413360596,14.2
-0.1135890856385231,-9.981680870056152,-1.580885887145996,14.21
0.3156082928180694,-9.77707576751709,-2.656259536743164,14.22
-0.1224797070026397,-10.12802505493164,-2.846724510192871,14.23
0.3627181351184845,-9.968490600585938,-1.3548469543457031,14.24
0.2287868708372116,-9.11050033569336,-2.796825647354126,14.25
0.7901425361633301,-9.954629898071287,-1.040835738182068,14.26
0.1678863018751144,-9.395163536071776,-2.831437110900879,14.27
-0.64116370677948,-10.468628883361816,-1.7452179193496704,14.28
-1.4824507236480713,-9.765235900878906,-2.333394765853882,14.29
-2.426513433456421,-10.2081298828125,-2.6922786235809326,14.3
-2.6662213802337646,-9.982645988464355,-1.6865662336349487,14.31
-4.210449695587158,-9.535686492919922,-2.192305564880371,14.32
-3.8569741249084473,-8.511425018310547,-1.8066095113754272,14.33
-3.859750747680664,-8.825979232788086,-2.008404493331909,14.34
-2.6328632831573486,-8.495473861694336,-2.1888976097106934,14.35
-1.1589025259017944,-8.739702224731445,-1.9877158403396609,14.36
0.5595293641090393,-9.13670539855957,-2.1099653244018555,14.37
0.4030943214893341,-10.155887603759766,-2.6203501224517822,14.38
2.556104183197021,-10.071553230285645,-1.6618937253952026,14.39
1.4879246950149536,-10.682147979736328,-2.7361443042755127,14.4
2.3478147983551025,-10.213740348815918,-1.6478787660598757,14.41
0.859377384185791,-9.843053817749023,-2.6472692489624023,14.41
1.4634586572647097,-9.458412170410156,-1.2883706092834473,14.42
-0.2068886458873748,-9.654134750366213,-2.4765079021453857,14.43
0.0176310185343027,-9.242712020874023,-1.7066248655319214,14.44
-0.8773210048675537,-9.28835678100586,-2.404729127883911,14.45
0.523918628692627,-9.071569442749023,-1.5469915866851809,14.46
0.0220080111175775,-9.742746353149414,-2.1971242427825928,14.47
1.0523698329925537,-9.995534896850586,-1.7573162317276,14.48
0.504643976688385,-10.18265438079834,-2.1943511962890625,14.49
1.0618157386779783,-9.995186805725098,-1.8262470960617063,14.5
0.3523943126201629,-9.668868064880373,-1.6372463703155518,14.51
0.2234509289264679,-9.256227493286133,-1.9893678426742556,14.52
0.0583533346652984,-9.215733528137209,-1.5475560426712036,14.53
0.5312978029251099,-8.819302558898926,-2.116017818450928,14.54
0.0192274954169988,-8.86669921875,-1.7310796976089478,14.55
0.3734313547611236,-8.934534072875977,-1.9723752737045288,14.56
-0.2317300140857696,-10.54222583770752,-2.617427110671997,14.57
0.1427922844886779,-11.27851676940918,-2.294874668121338,14.58
0.6258196830749512,-10.498528480529783,-1.5843650102615356,14.59
2.025408267974853,-9.821344375610352,-1.3127213716506958,14.6
0.6258807182312012,-10.458792686462402,-1.603566288948059,14.61
0.5965878963470459,-10.0344820022583,-0.3247548043727875,14.62
1.0663371086120603,-9.468294143676758,0.017312116920948,14.63
1.583714246749878,-9.637713432312012,0.6068871021270752,14.64
0.1400899589061737,-7.800708293914795,2.412373781204224,14.65
0.944911003112793,-8.0809326171875,0.1228971257805824,14.66
-1.406832218170166,-10.135066986083984,-1.0832619667053225,14.67
1.87222158908844,-12.876347541809082,0.1434016227722168,14.68
4.416700839996338,-12.159120559692385,3.0526275634765625,14.69
5.660909175872803,-8.470356941223145,0.0750216916203498,14.7
2.824185371398926,-10.119351387023926,1.5805071592330933,14.71
3.238623857498169,-9.766322135925291,2.69858455657959,14.72
2.619213104248047,-10.506963729858398,-0.7682936787605286,14.73
2.212099075317383,-10.26169204711914,1.8636049032211304,14.74
0.0017691198736429,-9.88502597808838,-0.6395813226699829,14.75
-1.406863808631897,-9.575828552246094,1.5603277683258057,14.76
-1.5706130266189575,-9.090907096862791,-1.1608378887176514,14.77
-3.157597541809082,-9.966437339782717,0.3187052309513092,14.78
-2.024603843688965,-9.944722175598145,-0.3909536004066467,14.79
-1.4621431827545166,-10.348227500915527,-0.307251513004303,14.8
-0.69832843542099,-9.637831687927246,-0.4811087548732757,14.81
0.0782340541481971,-9.350068092346191,0.0898051336407661,14.82
0.3323051929473877,-9.671977043151855,-0.1567805558443069,14.83
0.810818076133728,-10.494173049926758,-0.5147113800048828,14.84
1.0222538709640503,-10.107664108276367,-0.2192862033843994,14.85
0.5592344403266907,-9.568553924560549,-0.3190730810165405,14.86
0.1424046158790588,-9.892385482788086,-0.3014588952064514,14.87
-0.3966748416423797,-10.247249603271484,-0.8097341656684875,14.88
-0.9579492807388306,-9.755867958068848,-0.7737450003623962,14.89
-0.7566092014312744,-9.398629188537598,-0.4887756109237671,14.9
-0.2915776968002319,-9.353251457214355,-0.4994421303272247,14.91
0.0220571141690015,-9.846540451049805,-0.5893243551254272,14.92
0.2338016629219055,-10.451953887939451,-1.057745337486267,14.93
0.1575000286102295,-10.164934158325195,-0.8281473517417908,14.94
0.0746927857398986,-9.394688606262209,-0.424237996339798,14.95
-0.0460109375417232,-9.248761177062988,-0.8390859365463257,14.96
-0.1762407720088958,-9.819916725158691,-0.6814203262329102,14.97
-0.1673539876937866,-10.017879486083984,-0.6938338875770569,14.98
0.0377055704593658,-10.070111274719238,-1.065971612930298,14.99
-0.1007882952690124,-10.24508571624756,-0.9425373077392578,14.1
0.0217035170644521,-9.78628635406494,-0.6872330904006958,15.1
-0.3087145984172821,-9.45606803894043,-0.0174055248498916,15.2
-0.1131845489144325,-8.960928916931152,-0.7277807593345642,15.3
-0.3000415861606598,-9.948250770568848,-1.3764986991882324,15.4
-0.3448928296566009,-11.07851791381836,0.1473627984523773,15.5
0.3737922608852386,-9.188124656677246,-0.2086549401283264,15.6
0.2883273959159851,-8.768277168273926,-1.4879013299942017,15.7
-0.5292597413063049,-10.775147438049316,-1.0464204549789429,15.8
0.2873830795288086,-11.33562469482422,0.2145886123180389,15.9
0.2904690206050873,-8.950610160827637,-1.0263445377349854,15.1
-0.7985097765922546,-8.906163215637207,-1.2035061120986938,15.11
-0.3203815519809723,-10.48863410949707,0.4520370066165924,15.12
0.4033475816249847,-9.57715129852295,0.0531286522746086,15.13
-0.2776406109333038,-8.927169799804688,-1.7076878547668457,15.14
-0.4480937421321869,-10.591354370117188,-0.8647299408912659,15.15
0.5131121277809143,-10.623117446899414,-0.5712495446205139,15.16
-0.1464536935091018,-9.621858596801758,-0.8065168261528015,15.17
-0.1394608467817306,-9.134235382080078,-0.0790403485298156,15.18
-0.0637949779629707,-9.420327186584473,-0.407362163066864,15.19
-0.18951016664505,-9.924211502075195,-1.127347707748413,15.2
-0.013297920115292,-10.205739974975586,-1.2069659233093262,15.21
-0.0720785707235336,-9.85628890991211,-1.3710964918136597,15.22
-0.0994225889444351,-9.500353813171388,-1.2680094242095947,15.23
-0.040726400911808,-9.53108024597168,-1.346341252326965,15.24
-0.0037866253405809,-9.747496604919434,-1.5954363346099854,15.25
0.0251477565616369,-9.876754760742188,-1.6164196729660034,15.26
-0.0327819846570491,-9.65797519683838,-1.5552515983581543,15.27
-0.0719836130738258,-9.607519149780272,-1.535530686378479,15.28
-0.1019082814455032,-9.646075248718262,-1.5464738607406616,15.29
-0.102696493268013,-9.744489669799805,-1.5971944332122805,15.3
-0.0638928860425949,-9.784409523010254,-1.6858859062194824,15.31
-0.0336529351770877,-9.706487655639648,-1.654654622077942,15.32
-0.0623800382018089,-9.587488174438477,-1.5943175554275513,15.33
0.0063673947006464,-9.63866138458252,-1.6332557201385498,15.34
-0.0043588364496827,-9.746663093566896,-1.684287667274475,15.35
-0.0442241355776786,-9.754977226257324,-1.7246164083480835,15.36
0.0153264608234167,-9.727210998535156,-1.7132816314697266,15.37
-0.0236234627664089,-9.637296676635742,-1.6831449270248413,15.38
-0.0432808883488178,-9.597051620483398,-1.6928256750106812,15.39
-0.0437538176774978,-9.656099319458008,-1.7232578992843628,15.4
-0.0539600849151611,-9.695165634155272,-1.743721842765808,15.41
-0.0438783653080463,-9.695743560791016,-1.7139289379119873,15.42
-0.023828137665987,-9.666868209838867,-1.693424940109253,15.43
-0.0139536969363689,-9.657186508178713,-1.7029856443405151,15.44
-0.0436736904084682,-9.666172981262209,-1.7036490440368652,15.45
-0.0142219504341483,-9.686665534973145,-1.7231379747390747,15.46
-0.0339098609983921,-9.666288375854492,-1.7232178449630735,15.47
-0.0632980167865753,-9.645888328552246,-1.6938564777374268,15.47
-0.0435630790889263,-9.656377792358398,-1.6936407089233398,15.48
-0.0438949093222618,-9.685763359069824,-1.7236653566360474,15.49
-0.0240493603050708,-9.686457633972168,-1.7134413719177246,15.5
-0.023828137665987,-9.666868209838867,-1.693424940109253,15.51
-0.0236870422959327,-9.63720417022705,-1.6930174827575684,15.52
-0.0337025746703147,-9.676547050476074,-1.6838641166687012,15.53
-0.0436075031757354,-9.706094741821287,-1.6647027730941772,15.54
-0.0531501099467277,-9.686389923095703,-1.6251174211502075,15.55
-0.0429272875189781,-9.657303810119627,-1.594916820526123,15.56
-0.0131907491013407,-9.65829849243164,-1.584517002105713,15.57
-0.0430048033595085,-9.687060356140137,-1.5854520797729492,15.58
-0.0332078821957111,-9.707136154174805,-1.585547924041748,15.59
-0.0430988669395446,-9.706835746765137,-1.5857237577438354,15.6
-0.0626125857234001,-9.676756858825684,-1.565923094749451,15.61
-0.0427504889667034,-9.68743133544922,-1.5459624528884888,15.62
-0.0525944456458091,-9.67724323272705,-1.5460023880004885,15.63
-0.0427504889667034,-9.68743133544922,-1.5459624528884888,15.64
-0.0526249259710311,-9.697111129760742,-1.5364017486572266,15.65
-0.0427504889667034,-9.68743133544922,-1.5459624528884888,15.66
-0.0427809730172157,-9.70729923248291,-1.536361813545227,15.67
-0.0427339449524879,-9.69741153717041,-1.5362259149551392,15.68
-0.0425762981176376,-9.677728652954102,-1.526081919670105,15.69
-0.0624053031206131,-9.68701457977295,-1.526569366455078,15.7
-0.0623251795768737,-9.697088241577148,-1.5069605112075806,15.71
-0.0428114607930183,-9.727167129516602,-1.526761174201965,15.72
-0.0526554137468338,-9.716979026794434,-1.5268011093139648,15.73
-0.042623333632946,-9.687616348266602,-1.526217699050903,15.74
-0.0425762981176376,-9.677728652954102,-1.526081919670105,15.75
-0.0524507388472557,-9.687408447265623,-1.5165212154388428,15.76
-0.052608385682106,-9.707091331481934,-1.526665210723877,15.77
-0.0524812266230583,-9.707277297973633,-1.5069204568862915,15.78
-0.0525918379426002,-9.717071533203123,-1.516928791999817,15.79
-0.0426067858934402,-9.697596549987791,-1.5164812803268433,15.8
-0.0524037107825279,-9.677520751953123,-1.5163853168487549,15.81
-0.052500382065773,-9.657466888427734,-1.545730710029602,15.82
-0.0328595004975795,-9.687731742858888,-1.5457866191864014,15.83
-0.0430021956562995,-9.726889610290527,-1.5563783645629885,15.84
-0.0528931841254234,-9.72658920288086,-1.5565541982650757,15.85
-0.0428140684962272,-9.687338829040527,-1.5558350086212158,15.86
-0.0526745691895484,-9.667170524597168,-1.565611481666565,15.87
-0.0329396277666091,-9.677659034729004,-1.565395712852478,15.88
-0.042830616235733,-9.677358627319336,-1.565571427345276,15.89
-0.0429717116057872,-9.707021713256836,-1.56597900390625,15.9
-0.0429551638662815,-9.717001914978027,-1.5562424659729004,15.91
-0.0429246798157691,-9.697134017944336,-1.5658432245254517,15.92
-0.0526580214500427,-9.67715072631836,-1.555874943733215,15.93
-0.0526885092258453,-9.69701862335205,-1.5462740659713743,15.94
-0.0327654369175434,-9.667956352233888,-1.5455149412155151,15.95
-0.0428140684962272,-9.687338829040527,-1.5558350086212158,15.96
-0.0527355372905731,-9.70690631866455,-1.5464099645614624,15.97
-0.0428280085325241,-9.71718692779541,-1.536497712135315,15.98
-0.0526414737105369,-9.68713092803955,-1.5461382865905762,15.99
-0.0524533465504646,-9.647579193115234,-1.5455948114395142,15.1
-0.042830616235733,-9.677358627319336,-1.565571427345276,16.1
-0.0330171436071395,-9.707414627075195,-1.5559308528900146,16.2
-0.0429551638662815,-9.717001914978027,-1.5562424659729004,16.3
-0.0526414737105369,-9.68713092803955,-1.5461382865905762,16.4
-0.0330502390861511,-9.687453269958496,-1.5754038095474243,16.5
-0.033003207296133,-9.677565574645996,-1.575268030166626,16.6
-0.0525474101305007,-9.66735553741455,-1.54586660861969,16.7
-0.0327654369175434,-9.667956352233888,-1.5455149412155151,16.8
-0.0526885092258453,-9.69701862335205,-1.5462740659713743,16.9
-0.0527825728058815,-9.71679401397705,-1.5465458631515503,16.1
-0.052846148610115,-9.71670150756836,-1.5564182996749878,16.11
-0.0525474101305007,-9.66735553741455,-1.54586660861969,16.12
-0.0623277872800827,-9.65725803375244,-1.5360342264175415,16.13
-0.0526109933853149,-9.66726303100586,-1.5557390451431274,16.14
-0.0330171436071395,-9.707414627075195,-1.5559308528900146,16.15
-0.023126158863306,-9.70771598815918,-1.5557550191879272,16.16
-0.0328290164470672,-9.667863845825195,-1.5553874969482422,16.17
-0.0724069029092788,-9.69650936126709,-1.5367534160614014,16.18
-0.0711205005645752,-9.439520835876465,-1.5233489274978638,16.19
-0.363690435886383,-8.879009246826172,-1.2840784788131714,16.2
0.7586997747421265,-7.358352184295654,-4.7081451416015625,16.21
-0.5598034262657166,-10.90404987335205,-4.138825416564941,16.22
0.9472036957740784,-9.511305809020996,-4.595895767211914,16.23
-0.7197399735450745,-11.037817001342772,-7.352120399475098,16.24
0.0783644169569015,-12.795137405395508,2.5898756980896,16.25
-0.6025860905647278,-6.578000545501709,-0.1216723322868347,16.26
1.2177151441574097,-3.873441696166992,-6.597097873687744,16.27
-0.9206618666648864,-10.263164520263672,-3.810847520828247,16.28
0.6233720779418945,-12.433921813964844,-5.145184516906738,16.29
-0.1236231625080108,-13.693992614746094,-6.558124542236328,16.3
-0.0486323274672031,-11.529090881347656,1.923648715019226,16.31
-0.9733223915100098,-6.135960102081299,0.3514986634254455,16.32
2.176826238632202,-2.251923084259033,-3.240356683731079,16.33
-0.9478570222854614,-9.50667667388916,-8.5496826171875,16.34
-1.757527232170105,-16.9679012298584,3.1412229537963867,16.35
-0.9649463891983032,-11.469751358032228,-3.670166492462158,16.36
0.0194418337196111,-7.771819114685059,-2.4861819744110107,16.37
-1.4551376104354858,-7.9531707763671875,0.5746093392372131,16.38
0.196989044547081,-7.974001884460449,0.6339944005012512,16.39
2.043769836425781,-9.003459930419922,-2.120637893676758,16.4
1.8109230995178225,-11.696854591369627,-1.006564021110535,16.41
2.5808420181274414,-11.6483154296875,-1.2880712747573853,16.42
4.699821472167969,-10.157048225402832,-0.4887304604053497,16.43
1.8713724613189695,-8.572348594665527,-0.0347921326756477,16.44
-0.305076539516449,-7.97788143157959,-0.5204000473022461,16.45
-0.3462269604206085,-9.39395809173584,-1.271046161651611,16.46
-1.395577907562256,-10.73057460784912,-1.969839334487915,16.47
-2.4669222831726074,-10.653729438781738,-2.501647710800171,16.48
-2.1830220222473145,-9.806084632873535,-2.040648460388184,16.49
-1.261000156402588,-9.568377494812012,-1.8824167251586916,16.5
-0.3620713651180267,-9.09045124053955,-0.8821636438369751,16.51
0.7098328471183777,-8.895133018493652,-1.9854631423950195,16.52
0.5065444111824036,-10.563763618469238,-1.6269152164459229,16.52
1.2881574630737305,-8.770002365112305,-1.3611406087875366,16.53
2.0650315284729004,-8.868470191955566,-5.040665149688721,16.54
0.1284171193838119,-11.3256196975708,-1.4269999265670776,16.55
0.344856321811676,-8.871335983276367,-3.3739259243011475,16.56
0.3329434990882873,-9.222357749938965,-4.958533763885498,16.57
-0.3422313630580902,-9.16662883758545,-2.3439714908599854,16.58
0.2334100306034088,-9.646562576293944,-4.748940944671631,16.59
0.2071031779050827,-10.566545486450195,-3.567408561706543,16.6
0.2252998799085617,-10.065381050109863,-1.121729612350464,16.61
0.2443835437297821,-7.655540943145752,-2.9642550945281982,16.62
0.4772080183029175,-9.233366012573242,-1.0070632696151731,16.63
0.4440335631370544,-9.073858261108398,-3.187309741973877,16.64
0.271391361951828,-10.720738410949709,-4.21992826461792,16.65
0.8241803646087646,-10.02742862701416,-1.8408823013305664,16.66
0.0487673804163932,-9.098041534423828,-4.636213302612305,16.67
0.8839269280433655,-10.079598426818848,-1.741782784461975,16.68
-0.5650235414505005,-8.857918739318848,-1.8403122425079343,16.69
0.0503419563174247,-7.82429027557373,-2.2592689990997314,16.7
0.4895431101322174,-9.258782386779783,-3.662886142730713,16.71
0.0979681611061096,-11.124462127685549,-1.6913646459579468,16.72
-0.2974965274333954,-10.302069664001465,-3.7802984714508057,16.73
0.266543984413147,-11.046390533447266,-3.2075963020324707,16.74
-0.382443368434906,-10.189980506896973,-1.707090139389038,16.75
0.2259985357522964,-8.114965438842773,-2.4180023670196533,16.76
0.1361217498779297,-8.359915733337402,-2.3736188411712646,16.77
-0.0366860479116439,-9.098891258239746,-1.0343199968338013,16.78
0.2076218873262405,-8.620024681091309,-3.3631186485290527,16.79
0.3124954998493194,-10.53917407989502,-2.5877411365509038,16.8
-0.6459134221076965,-9.85853099822998,-1.3914376497268677,16.81
-0.154880404472351,-9.246994018554688,-3.9015145301818848,16.82
-0.1140699014067649,-10.648052215576172,-1.1753478050231934,16.83
-0.0668710842728614,-8.559602737426758,-1.5013858079910278,16.84
-0.5966769456863403,-10.000743865966797,-4.373976230621338,16.85
0.4532031416893005,-10.355829238891602,0.6752438545227051,16.86
-0.0596058666706085,-9.314395904541016,-4.414071083068848,16.87
-0.3352886140346527,-10.25782585144043,-2.0132060050964355,16.88
0.1951953917741775,-8.654213905334473,-0.6784937977790833,16.89
-0.2303585559129715,-9.803301811218262,-4.46334171295166,16.9
-0.0749981105327606,-9.12358283996582,0.7022044658660889,16.91
-0.4105370640754699,-9.38655948638916,-5.092769145965576,16.92
-0.1977899670600891,-10.742674827575684,-0.289638340473175,16.93
-0.3897205889225006,-9.088339805603027,-2.096954107284546,16.94
-0.260043740272522,-10.101070404052734,-4.2507524490356445,16.95
-0.7644742727279663,-9.510801315307615,-0.0955504477024078,16.96
-0.1334767490625381,-9.498865127563477,-3.4701743125915527,16.97
-0.5358392596244812,-9.405704498291016,-1.521467924118042,16.98
-0.0558944419026374,-9.523089408874512,-2.1659250259399414,16.99
0.1749722808599472,-9.843567848205566,-1.4157915115356443,17.0
-0.2474590539932251,-9.655621528625488,-1.104989767074585,17.1
-1.1755248308181765,-9.420734405517578,-1.0100669860839844,17.2
-1.8555763959884644,-9.562821388244627,-0.5307523608207703,17.3
-0.1447078734636306,-10.71543788909912,-1.2755500078201294,17.4
-2.3816335201263428,-11.459979057312012,2.0796048641204834,17.5
-2.731230497360229,-8.774552345275879,2.6726410388946533,17.6
1.0730665922164917,-7.710038661956787,1.3149909973144531,17.7
2.055413722991944,-9.563868522644045,-1.4468752145767212,17.8
-2.117631196975708,-12.958730697631836,-0.3646878600120544,17.9
-2.7872402667999268,-12.628179550170898,1.384948492050171,17.1
-3.0430233478546143,-8.251561164855957,-1.551316261291504,17.11
-4.617075443267822,-9.625481605529783,-0.7694166898727417,17.12
-3.4310643672943115,-8.989891052246094,4.730194568634033,17.13
-1.7593188285827637,-7.815453052520752,-3.723577499389648,17.14
-4.694371700286865,-10.806386947631836,-1.1620999574661257,17.15
-1.8012553453445437,-9.934001922607422,2.01227068901062,17.16
0.4331315457820892,-10.948027610778809,-0.4685428738594055,17.17
1.8485515117645264,-8.68515396118164,2.628825187683105,17.18
2.264559745788574,-7.296440601348877,-1.3331341743469238,17.19
0.7952477335929871,-10.166994094848633,-1.6261192560195925,17.2
1.659083366394043,-12.348553657531738,0.4527777135372162,17.21
1.4866429567337036,-11.092647552490234,-1.1128109693527222,17.22
0.8198050856590271,-9.796215057373049,-1.156603217124939,17.23
-0.7796371579170227,-10.309276580810549,-0.3337949514389038,17.24
-1.700186252593994,-10.627140998840332,2.8438076972961426,17.25
-0.5541115999221802,-6.980484485626221,1.5421653985977173,17.26
-0.1856725215911865,-6.883177280426025,-2.724592924118042,17.27
-1.5438904762268066,-11.52264404296875,-1.3910014629364014,17.28
-0.8029335141181946,-13.51112174987793,-1.6218667030334473,17.29
0.3742682039737701,-10.548673629760742,-0.6813561320304871,17.3
0.2023128569126129,-7.400136947631836,-0.483537882566452,17.31
-0.0424793362617492,-10.269449234008787,0.4403394758701324,17.32
-1.0995104312896729,-10.904606819152832,4.154114723205566,17.33
1.0347899198532104,-7.222853660583496,1.1629862785339355,17.34
0.3103451728820801,-7.477817535400391,-2.072104454040528,17.35
-1.055659532546997,-14.959236145019531,-1.419167160987854,17.36
-0.4870451092720032,-14.283190727233888,4.938545227050781,17.37
1.2107791900634766,-6.447049617767334,3.3388547897338867,17.38
-0.6293028593063354,-3.425260543823242,-1.935142993927002,17.39
-0.980789065361023,-12.161874771118164,-2.564312696456909,17.4
-0.5061900019645691,-16.161100387573242,4.86319637298584,17.41
1.6571111679077148,-8.206377983093262,1.7433555126190186,17.42
0.9752943515777588,-4.689414024353027,-5.2601165771484375,17.43
2.6311469078063965,-12.009482383728027,-0.8971875905990601,17.44
0.5972253084182739,-15.23675537109375,5.04397439956665,17.45
0.5998677611351013,-8.106099128723145,1.843963384628296,17.46
-0.4768308401107788,-4.498562335968018,-5.106220245361328,17.47
2.299569129943848,-10.55667209625244,0.3111874163150787,17.48
1.329158902168274,-13.24116039276123,-2.497540235519409,17.49
-3.966306447982788,-10.908451080322266,-3.2136006355285645,17.5
-1.2201462984085083,-9.12342643737793,-2.003941297531128,17.51
-0.3791682422161102,-9.561708450317385,-0.1287267506122589,17.52
-0.2223452925682068,-8.965413093566895,2.271409749984741,17.53
1.401071071624756,-7.504898548126221,-1.6379892826080322,17.54
1.2101458311080933,-11.736201286315918,0.9465964436531068,17.55
0.6671501994132996,-11.83065128326416,1.1723698377609253,17.56
-0.2018420696258545,-9.864773750305176,-0.0210414826869964,17.57
0.4340417087078094,-9.235228538513184,1.4898664951324463,17.58
0.1162185370922088,-8.128503799438477,0.4922010004520416,17.59
0.6360533833503723,-9.746808052062988,-0.5471766591072083,17.6
-0.2097476869821548,-10.49045467376709,-0.7899094223976135,17.61
0.319483071565628,-10.698702812194824,-1.3952202796936035,17.62
-0.0649124681949615,-10.314764976501465,0.06415805965662,17.63
1.221875548362732,-9.479101181030272,-0.3946508169174194,17.64
0.4557123780250549,-9.84175968170166,0.6921804547309875,17.65
0.4863468706607818,-9.236727714538574,0.4048233330249786,17.66
0.540069043636322,-9.519070625305176,-0.2595111429691314,17.67
0.163216546177864,-10.248756408691406,-1.4116647243499756,17.68
-0.2816306054592132,-11.34073543548584,-0.5856307744979858,17.69
0.6046363711357117,-8.921150207519531,0.1151087954640388,17.7
0.939612627029419,-9.363372802734377,-1.2966017723083496,17.71
-0.4077891409397125,-9.851072311401367,0.2419566512107849,17.72
0.3528571426868438,-9.295363426208496,-0.3092247545719147,17.73
1.2231032848358154,-10.183629989624023,-1.2236640453338623,17.73
-0.4839527010917663,-10.376513481140137,-0.44780433177948,17.74
0.5940821766853333,-9.632577896118164,-1.0005152225494385,17.75
0.955009400844574,-10.353211402893066,-1.2604732513427734,17.76
-0.6833702325820923,-9.59573745727539,0.2700473964214325,17.77
0.4992710053920746,-9.117816925048828,-0.7385271191596985,17.78
0.4994865953922272,-9.900520324707031,-1.6673508882522583,17.79
-0.4812004864215851,-9.932491302490234,-0.3429672420024872,17.8
0.5612267255783081,-9.816207885742188,-1.3590295314788818,17.81
-0.0095832934603095,-9.653599739074709,-1.031527757644653,17.82
0.7000789642333984,-9.128185272216797,-0.2710088789463043,17.83
1.012137770652771,-10.471261024475098,-1.5177305936813354,17.84
0.2933305203914642,-10.33454704284668,-1.1142945289611816,17.85
0.6960834860801697,-10.163616180419922,-1.6673667430877686,17.86
0.4799209833145141,-9.645527839660645,-0.2919492125511169,17.87
-0.0607043281197547,-9.450543403625488,-1.434457540512085,17.88
0.2447143197059631,-10.035578727722168,-1.1999495029449463,17.89
-0.388398140668869,-8.73599910736084,-0.6211184859275818,17.9
0.7726978063583374,-10.371439933776855,-1.905750393867493,17.91
-0.8605074286460876,-9.024127960205078,-0.001800425350666,17.92
1.484666109085083,-9.785490036010742,-2.3586795330047607,17.93
0.3652882575988769,-10.141493797302246,-0.8339202404022217,17.94
0.325401246547699,-9.333358764648438,-1.4653242826461792,17.95
0.6880449652671814,-10.783305168151855,-0.9355366826057434,17.96
0.2643111944198608,-9.233607292175291,-0.2803747951984405,17.97
0.5550882816314697,-10.245338439941406,-1.9968395233154297,17.98
0.1927235871553421,-9.49689769744873,-0.4531039297580719,17.99
0.3938534259796142,-9.24471378326416,-1.6504462957382202,18.0
0.6477115154266357,-9.55055809020996,-0.4159428775310516,18.1
-0.27542844414711,-9.458078384399414,-0.9843316674232484,18.2
0.7078566551208496,-9.53941249847412,-1.826462984085083,18.3
-0.3472817540168762,-10.51748275756836,-0.6249477863311768,18.4
-0.0898225158452987,-9.669487953186035,-1.1911641359329224,18.5
-2.3700079917907715,-9.14462947845459,-2.3706839084625244,18.6
-1.918205738067627,-8.690034866333008,-1.6651846170425415,18.7
-3.729413509368897,-9.087151527404783,-3.0758285522460938,18.8
-3.66267466545105,-10.41560173034668,-4.030638217926025,18.9
-2.6592564582824707,-11.816438674926758,-2.343315362930298,18.1
-1.0108567476272583,-8.401074409484863,-3.8068106174468994,18.11
-1.0421805381774902,-8.592734336853027,-5.4488301277160645,18.12
-0.2446446120738983,-11.04944896697998,-1.1930755376815796,18.13
0.970297634601593,-10.012908935546877,-0.6730722784996033,18.14
0.3020842373371124,-7.774423122406006,-3.1326608657836914,18.15
1.2876806259155271,-7.638448238372803,-0.7237335443496704,18.16
-0.7981345653533936,-8.565677642822266,-5.967263698577881,18.17
0.3333308696746826,-11.980815887451172,-2.9130916595458984,18.18
0.7704882621765137,-9.880361557006836,-2.6000330448150635,18.19
-0.8188217282295227,-8.250954627990723,-7.858861446380615,18.2
0.1255703568458557,-11.136460304260254,-0.4767100214958191,18.21
0.4193838536739349,-9.006425857543945,-3.986509323120117,18.22
-0.788445770740509,-7.827278137207031,-3.479011297225952,18.23
1.0045859813690186,-8.976766586303711,-3.758264541625977,18.24
-0.3673570156097412,-10.000367164611816,-4.093369960784912,18.25
0.7310757637023926,-11.462430000305176,-1.437650442123413,18.26
-0.4868923425674438,-8.605805397033691,-3.701349973678589,18.27
0.3215804398059845,-8.750326156616211,-2.4743006229400635,18.28
0.0022190995514392,-9.393664360046388,-2.4494032859802246,18.29
0.1731612384319305,-10.015983581542969,-3.0965018272399902,18.3
-0.1831442266702652,-10.134255409240724,-3.045362949371338,18.31
-0.0780471116304397,-9.240257263183594,-2.735070943832397,18.32
-0.004303028807044,-8.900459289550781,-2.284828424453736,18.33
0.0120412874966859,-9.314215660095217,-2.517247200012207,18.34
-0.030474342405796,-9.866263389587402,-2.574920177459717,18.35
-0.0307234358042478,-9.945551872253418,-2.5562620162963867,18.36
-0.0685463100671768,-9.349507331848145,-2.716644763946533,18.37
0.0636936202645301,-9.378658294677734,-2.132160425186157,18.38
-0.0777109488844871,-9.519522666931152,-2.4821927547454834,18.39
0.148005872964859,-9.83249568939209,-2.5317223072052,18.4
-0.1831891536712646,-9.531013488769531,-1.9610261917114256,18.41
0.4265108704566955,-8.14065933227539,-3.510552167892456,18.42
-0.3238950371742248,-9.983180046081545,-5.03023099899292,18.43
0.3001765310764313,-12.132501602172852,-0.2896828353404999,18.44
-0.0442371219396591,-8.829023361206055,-2.393176794052124,18.45
0.3086211383342743,-6.473876953125,-1.5351871252059937,18.46
-0.1006305292248725,-6.827788352966309,-7.954710006713867,18.47
-0.2553772628307342,-12.99683666229248,-4.497525215148926,18.48
-1.4491137266159058,-13.855199813842772,-1.875257968902588,18.49
-0.6738294363021851,-6.5945234298706055,-3.469968318939209,18.5
-0.5956984162330627,-4.31712532043457,-8.314464569091797,18.51
-1.5688295364379885,-10.594389915466309,-4.380019187927246,18.52
-0.6008181571960449,-14.391234397888184,-3.377637386322021,18.53
1.1060301065444946,-11.273414611816406,-1.7145516872406006,18.54
1.8740639686584477,-5.260824680328369,-2.0035200119018555,18.55
1.1430097818374634,-6.844457149505615,-3.7759974002838135,18.56
2.359016180038452,-8.706750869750977,-1.0051335096359253,18.57
4.714057922363281,-11.950779914855955,-7.680389404296875,18.58
-0.2502511441707611,-14.018210411071776,0.0793319270014762,18.59
-0.7857204079627991,-9.23924732208252,-0.5167465806007385,18.6
1.7747832536697388,-3.2361490726470947,-3.517792224884033,18.61
-1.8941688537597656,-8.779767990112305,-7.046480178833008,18.62
-0.5383321642875671,-12.836994171142578,0.5640981793403625,18.63
2.4579997062683105,-10.79565143585205,-8.643543243408203,18.64
0.0863771513104438,-10.404829978942873,-2.4715499877929688,18.65
-0.62095046043396,-8.319299697875977,-3.22599720954895,18.66
0.9228996634483336,-7.849728584289551,-3.4383161067962646,18.67
0.2935027182102203,-8.757547378540039,-3.7484612464904794,18.68
0.7732888460159302,-10.577225685119627,-3.1919732093811035,18.69
1.3963260650634766,-10.118128776550291,-3.539654493331909,18.7
0.8720197677612305,-9.628325462341309,-2.3775503635406494,18.71
0.6168390512466431,-8.866722106933594,-2.6186063289642334,18.72
-0.0265245549380779,-9.264686584472656,-2.3988025188446045,18.73
-0.2026653885841369,-9.102736473083496,-2.222090721130371,18.74
-0.3607307970523834,-9.253345489501951,-3.609170913696289,18.75
0.0404683575034141,-10.593505859375,-3.3141229152679443,18.76
-0.1805723756551742,-10.576080322265623,-2.3306565284729004,18.77
-0.0255673676729202,-9.076910972595217,-2.386348962783813,18.78
-0.1441546380519867,-8.486032485961914,-2.795083522796631,18.79
-0.0045896098017692,-9.377943992614746,-1.9853051900863647,18.8
0.5679649114608765,-9.483355522155762,-2.084927082061768,18.81
0.0834334194660186,-9.623947143554688,-3.4876813888549805,18.82
-0.1143363788723945,-10.219542503356934,-1.5249119997024536,18.83
0.4895164668560028,-8.934343338012695,-2.375033140182495,18.83
-0.3785313665866852,-9.41493320465088,-3.187183618545532,18.84
0.1052441000938415,-10.348517417907717,-1.1277790069580078,18.85
0.3831025063991546,-9.378389358520508,-3.212320566177368,18.86
-0.3675029575824737,-9.795230865478516,-2.7380406856536865,18.87
0.0351306051015853,-8.93549919128418,-0.7543531656265259,18.88
-0.337738424539566,-8.282909393310547,-3.8126981258392334,18.89
-0.3025438189506531,-10.083991050720217,-1.664699673652649,18.9
-0.5734901428222656,-10.139898300170898,-2.2232511043548584,18.91
-0.2016976922750473,-10.6091890335083,-4.039433479309082,18.92
0.2289709150791168,-10.06077480316162,-0.5588679909706116,18.93
0.0695234313607215,-8.765707969665527,-3.199787378311157,18.94
-0.2077670693397522,-9.428017616271973,-1.249247670173645,18.95
0.6137622594833374,-8.806658744812012,-1.610848069190979,18.96
-0.591665506362915,-10.077741622924805,-3.545646905899048,18.97
0.8042219877243042,-9.841558456420898,-0.4763038754463196,18.98
-1.4171342849731443,-10.006376266479492,-4.290252208709717,18.99
-0.4795439541339874,-9.745735168457031,-0.2219174802303314,19.0
-0.492830216884613,-9.99519157409668,-2.091465711593628,19.1
-1.2289482355117798,-9.089046478271484,-0.3351808786392212,19.2
-0.4384958148002624,-9.111897468566896,-0.4494569599628448,19.3
1.6760811805725098,-9.63698387145996,-1.9286530017852783,19.4
-0.5529187917709351,-10.384759902954102,-0.3998089730739593,19.5
-0.1815436333417892,-9.985603332519531,0.1455104351043701,19.6
0.1992592960596084,-10.115396499633787,-2.050900459289551,19.7
-3.117208957672119,-10.42683219909668,0.7771613001823425,19.8
-2.141086339950561,-10.587335586547852,-1.1126651763916016,19.9
-3.198848962783813,-10.972519874572754,2.308334827423096,19.1
-2.831228494644165,-8.576630592346191,0.8372410535812378,19.11
-5.599159240722656,-9.123576164245604,-1.5702275037765503,19.12
-4.385903835296631,-10.474088668823242,0.4079014360904693,19.13
-1.13860285282135,-10.011305809020996,-2.51807713508606,19.14
-1.7218199968338013,-10.504364967346191,2.469935894012451,19.15
0.5656859278678894,-8.178277015686035,1.2006441354751587,19.16
0.124302864074707,-7.883061408996582,-1.4886717796325684,19.17
0.3456276953220367,-10.13527011871338,0.7059157490730286,19.18
1.8931180238723757,-10.56291389465332,0.1753665208816528,19.19
1.409412860870361,-10.704710960388184,-1.09904682636261,19.2
0.5268492698669434,-10.380115509033203,-0.1530373692512512,19.21
0.2693282961845398,-10.043221473693848,-0.4492968320846557,19.22
-1.394155740737915,-11.009782791137695,1.5014915466308594,19.23
-0.8917438983917236,-8.611099243164062,2.510883092880249,19.24
0.2080961167812347,-7.450031280517578,-2.6066997051239014,19.25
-2.8330507278442383,-13.105731964111328,0.7655007243156433,19.26
0.8543819189071655,-10.258973121643066,6.034753799438477,19.27
2.9030303955078125,-7.0124616622924805,-5.276512145996094,19.28
-1.8673334121704104,-13.104244232177734,1.730846643447876,19.29
3.034341812133789,-10.020588874816896,9.513288497924805,19.3
1.0774037837982178,-5.978928565979004,-8.41531753540039,19.31
-1.6484726667404177,-15.020145416259766,1.7777776718139648,19.32
2.8731019496917725,-11.046883583068848,9.792518615722656,19.33
-2.068868398666382,-4.741121768951416,-7.912660598754883,19.34
-3.1266157627105717,-11.9878568649292,-2.6009693145751958,19.35
0.3713785409927368,-14.802477836608888,8.03715991973877,19.36
2.010423183441162,-5.897515296936035,1.1790825128555298,19.37
-4.387607097625732,-5.011397361755371,-5.312700748443604,19.38
-0.2476687729358673,-13.892541885375977,0.3871418535709381,19.39
-0.6762932538986206,-13.06088638305664,3.855944156646729,19.4
5.061362266540527,-7.955584526062012,-1.2320247888565063,19.41
-2.869902849197388,-10.185487747192385,0.607249915599823,19.42
3.8589255809783936,-10.978415489196776,7.708545207977295,19.43
-1.4636467695236206,-6.646450519561768,-1.6783781051635742,19.44
0.7726900577545166,-7.263424396514893,-1.0932631492614746,19.45
-0.3241964876651764,-11.44631576538086,-4.023473739624023,19.46
-0.2581443786621094,-12.164793014526367,-2.4722278118133545,19.47
-0.847376823425293,-10.679377555847168,-2.8871829509735107,19.48
0.1776182800531387,-8.991183280944824,-1.6213008165359497,19.49
0.371965080499649,-8.468608856201172,-1.008409023284912,19.5
-0.0082097621634602,-9.028355598449709,-1.269778847694397,19.51
-0.5907115340232849,-9.923990249633787,-1.9836766719818115,19.52
-0.0325289741158485,-10.769291877746582,-2.241749048233032,19.53
-0.5984948873519897,-10.315055847167969,-1.3770629167556765,19.54
0.359441190958023,-8.79302978515625,-1.1808984279632568,19.55
1.5989608764648438,-9.468246459960938,-1.7401747703552246,19.56
-0.8646430969238281,-10.587038040161133,-1.0400803089141846,19.57
-0.1842112690210342,-9.29473114013672,-0.7632474899291992,19.58
0.519843339920044,-10.668593406677246,-1.025882601737976,19.59
-0.686154305934906,-9.635662078857422,1.3949156999588013,19.6
1.206904053688049,-7.942285060882568,-0.7589685320854187,19.61
0.4338846504688263,-10.715970993041992,-2.044959545135498,19.62
-1.3543239831924438,-11.863459587097168,0.6316542625427246,19.63
1.2727597951889038,-10.18958568572998,0.3370115160942077,19.64
0.9478425979614258,-9.160486221313477,1.352145433425903,19.65
0.2758669853210449,-8.284687995910645,0.8187648057937622,19.66
0.244052767753601,-9.481220245361328,-0.1755264699459076,19.67
0.1453889161348343,-10.96785831451416,-0.5925175547599792,19.68
0.0749579593539238,-10.934144020080566,-0.8006607294082642,19.69
0.6466620564460754,-9.300121307373049,-0.7580800652503967,19.7
0.0031460952013731,-9.797425270080566,-0.4902728497982025,19.71
0.0171305108815431,-9.933124542236328,0.2386932075023651,19.72
0.4902927577495575,-9.70626735687256,-0.1741199046373367,19.73
0.1464145481586456,-8.753255844116211,-0.5030285120010376,19.74
0.2492458522319793,-9.82314395904541,-0.6539798378944397,19.75
-0.0605302602052688,-10.894458770751951,-0.3681938052177429,19.76
0.7359866499900818,-9.601962089538574,-0.4940189123153686,19.77
0.6244937181472778,-9.505125045776367,-0.9784769415855408,19.78
-0.2671165466308594,-10.34218692779541,-0.5914788246154785,19.79
1.255574107170105,-9.306657791137695,0.1019410565495491,19.8
0.7758681178092957,-9.758769989013672,-1.8578380346298216,19.81
-0.3656833171844482,-10.966927528381348,-0.0884316489100456,19.82
0.8150901794433594,-9.474900245666504,-0.589570164680481,19.83
0.6784797310829163,-10.176145553588867,-1.322320818901062,19.84
-0.7081018686294556,-9.976218223571776,-0.2193491756916046,19.85
0.6179645657539368,-8.663436889648438,-1.0658292770385742,19.86
0.3832264542579651,-10.13940715789795,-1.1198676824569702,19.87
-0.6440632343292236,-9.556740760803224,0.2021873593330383,19.88
1.5988023281097412,-9.716923713684082,-1.5856128931045532,19.89
0.2235649079084396,-10.510886192321776,-1.068608641624451,19.9
0.8354748487472534,-9.456467628479004,-0.5099678039550781,19.91
1.0036360025405884,-10.084689140319824,-1.5817149877548218,19.92
-0.6151950359344482,-9.646076202392578,0.1422578394412994,19.93
