gyro_x,gyro_y,gyro_z,time_combined
0.127388522028923,0.4189352691173553,0.0959760621190071,1.6
0.0261594224721193,0.4119539260864258,0.0348895415663719,1.6
0.0017248113872483,0.4154445827007293,0.047106847167015,1.7
0.1134258806705474,0.4259165823459625,0.1064480394124984,1.7
0.0052154697477817,0.4154445827007293,0.0558334924280643,1.8
-0.1675721257925033,0.4102086126804352,0.0505975037813186,1.8
-0.0279457848519086,0.3787926733493805,0.0994667187333107,1.9
-2.0517873053904623e-05,0.4102086126804352,0.029653551056981,1.9
0.0226687621325254,0.4590778350830078,0.0122002605348825,1.1
0.0453580394387245,0.3875193297863006,0.0942307338118553,1.1
-0.08030566573143,0.3595940470695495,0.1169200092554092,1.11
0.1308791786432266,0.3962459862232208,0.0122002605348825,1.11
0.1291338503360748,0.464313805103302,0.0261628944426774,1.12
0.1099352240562439,0.4206805825233459,0.0942307338118553,1.12
-0.0698336884379386,0.3910099864006042,0.0715414509177208,1.13
0.062811329960823,0.3945006430149078,0.0052189431153237,1.13
0.127388522028923,0.4328978955745697,0.0331442132592201,1.14
-0.0558710545301437,0.4346432089805603,0.0663054659962654,1.14
-0.1187029033899307,0.3822833299636841,0.0977213904261589,1.15
-0.0296911131590604,0.3753020167350769,0.0680507943034172,1.15
0.0087061282247304,0.4206805825233459,0.0523428358137607,1.16
0.0610660053789615,0.4625684916973114,0.0767774432897567,1.16
0.0401220545172691,0.403227299451828,0.1012120470404625,1.17
-0.2042240351438522,0.3892646431922912,0.0715414509177208,1.17
0.1343698352575302,0.3805380165576935,0.0977213904261589,1.18
-0.0349271036684513,0.4433698654174804,0.0942307338118553,1.18
0.0069607989862561,0.4520965218544006,0.0889947414398193,1.19
-0.1256842166185379,0.4067179560661316,0.0453615151345729,1.19
-0.00351117644459,0.3910099864006042,0.0087096020579338,1.2
0.0872459411621093,0.448605865240097,-0.07855686545372,1.2
0.0942272618412971,0.4294072389602661,-0.0750662013888359,1.21
-0.0087471641600131,0.3753020167350769,-0.0453956015408039,1.21
-0.0192191395908594,0.3718113601207733,-0.0349236279726028,1.22
0.2006923407316208,0.4311525523662567,-0.0890288352966308,1.22
0.068047322332859,0.4381338655948639,0.017436247318983,1.23
0.0366313941776752,0.3892646431922912,0.0802680999040603,1.23
-0.143137514591217,0.3561033904552459,0.0767774432897567,1.24
0.1308791786432266,0.3770473599433899,0.0505975037813186,1.24
-0.0785603374242782,0.4224259257316589,0.0855040848255157,1.25
-2.0517873053904623e-05,0.4102086126804352,0.123901329934597,1.25
-0.0331817753612995,0.3770473599433899,0.1535719335079193,1.26
0.0296500790864229,0.3264327943325043,0.1535719335079193,1.26
0.0174327753484249,0.3473767638206482,0.1692798882722854,1.27
0.0715379789471626,0.3002528548240661,0.2129131257534027,1.27
0.0226687621325254,0.2025144249200821,0.2478197067975998,1.28
-0.0209644678980112,0.1745891571044922,0.2181491106748581,1.28
0.0139421159401535,0.1833158135414123,0.1221560016274452,1.29
0.0087061282247304,0.085577368736267,0.1256466507911682,1.29
-0.1029949411749839,0.0332174934446811,0.1256466507911682,1.3
-0.1815347522497177,0.0262361746281385,0.0593241490423679,1.3
-0.0192191395908594,-0.0278690326958894,0.01918157748878,1.31
-0.0122378226369619,-0.0348503477871418,0.0488521754741668,1.31
0.0610660053789615,-0.0069250809028744,-0.0192156676203012,1.32
-0.2251679897308349,0.0262361746281385,-0.1466246992349624,1.32
0.0558300167322158,0.1100119799375534,-0.3787534832954407,1.33
0.2774868309497833,0.1780798137187957,-0.5375784635543823,1.33
0.3856972455978393,0.1658625155687332,-0.6230995655059814,1.34
0.5741928219795227,0.1641171872615814,-0.5899383425712585,1.34
0.4729637205600738,0.1065213233232498,-0.5271064639091492,1.35
0.6352793574333191,0.0908133536577224,-0.3700268566608429,1.35
0.5602301955223083,0.0401988103985786,-0.1728046387434005,1.36
0.4083865284919739,0.085577368736267,-0.0837928503751754,1.36
0.0558300167322158,0.0070375530049204,0.1081933677196502,1.37
-0.2216773331165313,-0.2181099206209182,0.418861985206604,1.37
0.1099352240562439,-0.2320725470781326,0.6160841584205627,1.38
0.2547975778579712,-0.0941915437579155,0.5933948755264282,1.38
0.3996599018573761,-0.0470676533877849,0.5584883093833923,1.39
0.3577719926834106,-0.0523036420345306,0.4502778947353363,1.39
0.6090993881225586,-0.0610302872955799,0.3315955102443695,1.4
0.6178260445594788,-0.0627756118774414,0.16404390335083,1.4
0.3403187096118927,-0.0104157393798232,0.069796122610569,1.41
0.2111643254756927,-0.0348503477871418,0.0261628944426774,1.41
0.0401220545172691,0.0175095275044441,-0.0436502732336521,1.42
0.0837552845478057,0.0279815029352903,-0.0768115371465683,1.42
-0.0925229713320732,0.0768507272005081,-0.0593582354485988,1.43
0.0558300167322158,0.0785960555076599,-0.0419049449265003,1.43
-0.2251679897308349,0.0157641973346471,-0.0227063242346048,1.44
0.1378604918718338,-0.0104157393798232,0.01918157748878,1.44
0.2600335478782654,0.0419441387057304,-0.0052530323155224,1.45
0.3630079627037048,0.0646334215998649,0.0244175642728805,1.45
0.2792321741580963,0.0384534820914268,0.0750321075320243,1.46
-0.0349271036684513,-0.0034344226587563,0.0052189431153237,1.46
0.3577719926834106,0.0297268312424421,-0.0279423128813505,1.47
0.2408349215984344,0.0681240782141685,-0.020960995927453,1.47
0.3490453362464905,0.0401988103985786,0.0540881641209125,1.48
0.0261594224721193,0.0297268312424421,0.047106847167015,1.48
0.2216362953186035,0.0087828822433948,0.0593241490423679,1.49
0.2303629368543625,0.0157641973346471,0.0750321075320243,1.49
0.1762577295303344,0.061142761260271,0.0628148019313812,1.5
0.2460709065198898,0.061142761260271,0.0383802019059658,1.5
-0.1797894239425659,-0.0016890933038666,0.0453615151345729,1.51
0.3368280529975891,-0.0383410081267356,0.029653551056981,1.51
0.1640404313802719,0.0471801273524761,-0.020960995927453,1.52
0.3979145586490631,0.0803413838148117,-0.0244516544044017,1.52
0.2687602043151855,0.0489254556596279,-0.0157250072807073,1.53
0.1814937144517898,-0.0086704101413488,0.0087096020579338,1.53
0.3193747401237488,5.6235880038002506e-05,0.047106847167015,1.54
0.1186618655920028,0.0471801273524761,0.0052189431153237,1.54
0.2652695477008819,0.045434795320034,-0.0087436903268098,1.55
-0.1588454842567443,0.0419441387057304,-0.0960101559758186,1.55
0.2094189971685409,-0.0365956760942935,0.0069642723537981,1.56
0.1780030578374862,0.0122735407203435,-0.0087436903268098,1.56
0.3612626492977142,0.0681240782141685,-0.0174703374505043,1.57
0.2949401438236236,0.0838320404291153,-0.0715755447745323,1.57
-0.0104924933984875,-0.0104157393798232,0.0122002605348825,1.58
0.4659824073314667,-0.0278690326958894,0.0820134282112121,1.58
-0.1675721257925033,0.045434795320034,0.0418708585202693,1.59
0.1675310879945755,0.0733600631356239,0.0366348698735237,1.59
-0.0523803979158401,0.0419441387057304,0.00347361410968,1.6
0.0924819335341453,0.0070375530049204,-0.0244516544044017,1.6
0.4677277207374573,0.0419441387057304,-0.0890288352966308,1.61
0.2146549820899963,0.0489254556596279,-0.0628488957881927,1.61
0.544522225856781,0.031472161412239,-0.0087436903268098,1.62
0.0174327753484249,0.031472161412239,-0.1466246992349624,1.62
0.3996599018573761,0.0157641973346471,-0.0680848881602287,1.63
0.2460709065198898,0.0244908444583416,-0.0296876411885023,1.63
0.3141387701034546,5.6235880038002506e-05,0.0261628944426774,1.64
0.2373442500829696,0.0262361746281385,0.0261628944426774,1.64
-0.0820509940385818,-0.0365956760942935,0.0418708585202693,1.65
0.373479962348938,5.6235880038002506e-05,0.0715414509177208,1.66
0.1099352240562439,5.6235880038002506e-05,0.0680507943034172,1.66
0.2111643254756927,0.0524161159992218,0.1081933677196502,1.67
-0.0558710545301437,0.0070375530049204,0.0540881641209125,1.67
0.0575753450393676,5.6235880038002506e-05,0.0558334924280643,1.68
0.1588044464588165,0.0401988103985786,-0.0017623737221583,1.68
0.116916537284851,5.6235880038002506e-05,0.0558334924280643,1.69
0.4502744376659393,0.0262361746281385,0.0750321075320243,1.69
0.0313954055309295,-0.0139063978567719,0.029653551056981,1.7
0.3368280529975891,0.031472161412239,0.0122002605348825,1.7
0.3333373665809631,-0.0016890933038666,0.0453615151345729,1.71
0.1378604918718338,0.0122735407203435,0.0628148019313812,1.71
-0.1762987673282623,0.0332174934446811,0.031398881226778,1.72
-0.1745534390211105,-0.0557942986488342,0.0558334924280643,1.72
0.2059283256530761,-0.0051797516644001,0.0436161868274211,1.73
0.1553137898445129,0.0367081500589847,0.0052189431153237,1.73
0.3123934268951416,0.0646334215998649,-1.704443639027886e-05,1.74
0.0750286355614662,5.6235880038002506e-05,0.031398881226778,1.74
0.417113184928894,-0.0348503477871418,0.047106847167015,1.75
0.2216362953186035,0.0070375530049204,0.0680507943034172,1.75
0.2076736539602279,0.001801565173082,0.1326279789209365,1.76
0.136115163564682,0.0070375530049204,0.1308826506137848,1.76
-0.1989880502223968,-0.0034344226587563,-0.0069983615539968,1.77
-0.1623361408710479,0.1117573082447052,-0.2077112197875976,1.77
-0.2461119443178177,0.1798251420259475,-0.2618164420127868,1.78
0.0401220545172691,0.2025144249200821,-0.287996381521225,1.78
-0.4188995361328125,0.2461476624011993,-0.4101694226264953,1.79
-0.2705465257167816,0.1693531721830368,-0.4503119885921478,1.79
0.0156874451786279,0.1222292855381965,-0.4834732413291931,1.8
-0.1012496128678321,0.158881202340126,-0.5044171810150146,1.8
-0.0349271036684513,0.2234583795070648,-0.4241320490837097,1.81
-0.4049368798732757,0.0820867121219635,-0.1309167444705963,1.81
-0.2618198990821838,-0.1064088493585586,0.1849878579378128,1.82
-0.2024787068367004,-0.1256074607372284,0.289707601070404,1.82
-0.2356399595737457,-0.0784835815429687,0.2600370049476623,1.83
-0.2827638387680053,-0.0261237043887376,0.2216397672891616,1.83
-0.2251679897308349,-0.0819742381572723,0.2216397672891616,1.84
-0.1274295598268509,-0.0889555513858795,0.1657892316579818,1.84
-0.1850254237651825,-0.0715022608637809,0.1256466507911682,1.85
0.2006923407316208,-0.0557942986488342,0.1483359336853027,1.85
0.0104514574632048,-0.0680116042494773,0.118665337562561,1.86
0.0802646279335022,-0.0924462154507637,0.0680507943034172,1.86
0.2635242044925689,-0.0802289098501205,0.069796122610569,1.87
0.2286176085472107,-0.043576993048191,0.031398881226778,1.87
0.3298467099666595,0.0524161159992218,-0.0611035674810409,1.88
-0.0872869789600372,0.0175095275044441,-0.0384142883121967,1.88
0.0226687621325254,-0.0191423874348402,0.0523428358137607,1.89
-0.0174738094210624,-0.0069250809028744,0.0872494131326675,1.89
-0.143137514591217,0.0506707839667797,-0.0069983615539968,1.9
-0.1954973936080932,0.0506707839667797,-0.0366689562797546,1.9
-0.2199320048093795,-0.0086704101413488,0.0087096020579338,1.91
0.0244140923023223,0.0052922237664461,0.0069642723537981,1.91
-0.1309202164411544,0.0210001859813928,-0.0680848881602287,1.92
0.1780030578374862,0.0157641973346471,-0.0157250072807073,1.92
0.2059283256530761,-0.0243783742189407,0.0680507943034172,1.93
0.0610660053789615,0.0157641973346471,0.0523428358137607,1.93
0.12564317882061,0.0122735407203435,0.0261628944426774,1.94
-2.0517873053904623e-05,-0.0104157393798232,0.0523428358137607,1.94
0.233853593468666,-0.0156517270952463,0.0820134282112121,1.95
-0.0837963223457336,0.0262361746281385,-0.0017623737221583,1.95
0.0855006128549575,5.6235880038002506e-05,-0.0453956015408039,1.96
0.1570591181516647,-0.0121610686182975,-0.0366689562797546,1.96
0.0017248113872483,0.0052922237664461,-1.704443639027886e-05,1.97
0.0715379789471626,-0.0191423874348402,0.0017282847547903,1.97
-0.1239388957619667,-0.0086704101413488,-0.0174703374505043,1.98
0.0453580394387245,-0.0313596874475479,-1.704443639027886e-05,1.98
-0.0296911131590604,0.0349628217518329,-1.704443639027886e-05,1.99
-0.153609499335289,-0.0243783742189407,-0.0349236279726028,1.99
0.1081898957490921,5.6235880038002506e-05,-0.0192156676203012,1.1
0.0977179184556007,-0.0313596874475479,-0.0192156676203012,2.0
0.0558300167322158,0.0524161159992218,-0.0296876411885023,2.1
0.0558300167322158,0.0105282114818692,-0.0139796780422329,2.1
0.0610660053789615,-0.0121610686182975,0.0505975037813186,2.2
0.0837552845478057,5.6235880038002506e-05,0.0523428358137607,2.2
-0.1832800954580307,0.0332174934446811,0.0558334924280643,2.3
-0.0366724319756031,-0.0296143610030412,0.0785227715969085,2.3
-0.0663430318236351,-0.0034344226587563,0.0436161868274211,2.4
-0.1448828428983688,0.0244908444583416,-0.0401596166193485,2.4
0.0174327753484249,0.031472161412239,-0.0698302164673805,2.5
0.0331407375633716,-0.0016890933038666,-0.0855381786823272,2.5
0.0924819335341453,0.0087828822433948,-0.1152087748050689,2.6
0.0558300167322158,0.0140188699588179,-0.092519499361515,2.6
0.12564317882061,5.6235880038002506e-05,-0.0890288352966308,2.7
0.0139421159401535,-0.0086704101413488,-0.0296876411885023,2.7
0.0261594224721193,-0.0173970572650432,-0.0698302164673805,2.8
0.0802646279335022,0.0227455142885446,-0.0227063242346048,2.8
-0.0872869789600372,-0.0191423874348402,-0.0611035674810409,2.9
-0.0052565056830644,-0.0156517270952463,-0.033178299665451,2.9
0.0994632467627525,-0.0016890933038666,-0.0541222505271434,2.1
-0.1291748881340026,0.0244908444583416,0.0087096020579338,2.1
0.0313954055309295,5.6235880038002506e-05,0.0279082227498292,2.11
-0.08030566573143,-0.0156517270952463,0.0209269057959318,2.11
-0.0174738094210624,-0.0296143610030412,0.017436247318983,2.12
-0.0401630923151969,0.0175095275044441,0.029653551056981,2.12
-0.0279457848519086,-0.0139063978567719,-0.0122343488037586,2.13
0.1116805523633956,0.0122735407203435,-1.704443639027886e-05,2.13
0.0697926506400108,-0.0243783742189407,0.0418708585202693,2.14
0.1186618655920028,0.0157641973346471,0.0401255302131176,2.14
0.0366313941776752,-0.0156517270952463,0.0418708585202693,2.15
0.0226687621325254,-0.0139063978567719,0.0279082227498292,2.15
0.054084688425064,-0.0016890933038666,0.0279082227498292,2.16
-0.1448828428983688,0.0244908444583416,-0.0244516544044017,2.16
-0.0279457848519086,-0.0139063978567719,-0.0087436903268098,2.17
-0.0715790167450904,-0.0156517270952463,-0.0017623737221583,2.17
-0.0122378226369619,-0.0121610686182975,0.069796122610569,2.18
0.1919656991958618,-0.0051797516644001,0.0645601376891136,2.18
-0.0070018349215388,-0.0208877157419919,0.0523428358137607,2.19
0.1343698352575302,-0.0313596874475479,0.0575788207352161,2.19
0.0942272618412971,0.0035468942951411,0.0802680999040603,2.2
0.0471033714711666,0.001801565173082,-0.0052530323155224,2.2
0.0034701405093073,5.6235880038002506e-05,0.0279082227498292,2.21
-0.1082309335470199,-0.0365956760942935,0.0017282847547903,2.21
0.1204072013497352,0.0105282114818692,0.0767774432897567,2.22
-2.0517873053904623e-05,0.0052922237664461,-0.0261969845741987,2.22
-0.0401630923151969,0.0070375530049204,-0.0157250072807073,2.23
0.2513068914413452,-0.0278690326958894,0.0244175642728805,2.23
-0.0104924933984875,-0.0051797516644001,0.1064480394124984,2.24
0.2390895932912826,0.0070375530049204,0.029653551056981,2.24
0.1081898957490921,0.0157641973346471,0.029653551056981,2.25
0.0697926506400108,-0.0016890933038666,0.0366348698735237,2.25
0.0121967867016792,0.0401988103985786,0.0279082227498292,2.26
-0.1082309335470199,0.0506707839667797,-0.0907741636037826,2.26
0.0383767262101173,0.0838320404291153,-0.1693139821290969,2.27
-0.1082309335470199,0.085577368736267,-0.1570966839790344,2.27
-0.0262004565447568,0.0925586894154548,-0.1186994314193725,2.28
0.1378604918718338,0.1204839572310447,-0.1588420122861862,2.28
0.0523393601179122,0.1553905457258224,-0.1832766234874725,2.29
0.1343698352575302,0.1274652779102325,-0.0488862618803978,2.29
0.1326245069503784,0.1222292855381965,-0.0279423128813505,2.3
0.0436127111315727,0.1082666516304016,-0.0104890195652842,2.3
-0.0244551263749599,0.1012853309512138,-0.0035077028442174,2.31
-0.0715790167450904,0.0803413838148117,0.0767774432897567,2.31
-0.0401630923151969,0.1065213233232498,0.0453615151345729,2.32
-0.1762987673282623,0.1065213233232498,0.029653551056981,2.32
-0.0419084206223487,0.0628880858421325,0.0663054659962654,2.33
0.0418673828244209,0.0943040177226066,0.0924854055047035,2.33
-0.050635065883398,0.1100119799375534,-1.704443639027886e-05,2.34
0.1116805523633956,0.113502636551857,-0.0035077028442174,2.34
0.0226687621325254,0.0593974292278289,0.0645601376891136,2.35
0.0750286355614662,0.0820867121219635,0.0680507943034172,2.35
0.0558300167322158,0.1117573082447052,-0.0087436903268098,2.36
0.0121967867016792,0.1152479648590087,-0.020960995927453,2.36
0.0872459411621093,0.0803413838148117,0.0837587565183639,2.37
-0.0296911131590604,0.0873226970434188,0.0663054659962654,2.37
-0.0680883601307869,0.1117573082447052,-0.0104890195652842,2.38
0.0174327753484249,0.0960493460297584,-0.0104890195652842,2.38
-0.0209644678980112,0.0820867121219635,0.0872494131326675,2.39
0.0383767262101173,0.1065213233232498,0.0401255302131176,2.39
0.0052154697477817,0.1257199347019195,-0.0104890195652842,2.4
0.0244140923023223,0.085577368736267,0.0279082227498292,2.4
0.1308791786432266,0.0471801273524761,0.1465906053781509,2.41
-0.0087471641600131,0.0768507272005081,0.0558334924280643,2.41
0.0872459411621093,0.0803413838148117,0.0226722341030836,2.42
-0.0070018349215388,0.0122735407203435,0.0226722341030836,2.42
0.0226687621325254,-0.0051797516644001,0.0820134282112121,2.43
0.0471033714711666,0.0087828822433948,-0.0087436903268098,2.43
-0.0680883601307869,0.0105282114818692,-0.07855686545372,2.44
0.0401220545172691,-0.0034344226587563,-0.0837928503751754,2.44
-0.0104924933984875,-0.0121610686182975,-0.0069983615539968,2.45
0.0139421159401535,0.0332174934446811,-0.0384142883121967,2.45
0.0331407375633716,0.0349628217518329,-0.033178299665451,2.46
-0.0192191395908594,0.019254857674241,-1.704443639027886e-05,2.46
0.1483324617147445,0.001801565173082,0.0523428358137607,2.47
0.0436127111315727,0.0628880858421325,-0.0279423128813505,2.47
0.0558300167322158,0.0436894670128822,-0.0069983615539968,2.48
0.0697926506400108,0.0052922237664461,0.069796122610569,2.48
-0.0174738094210624,-0.0191423874348402,0.0872494131326675,2.49
-0.0104924933984875,0.0384534820914268,0.0226722341030836,2.49
-0.0349271036684513,0.019254857674241,0.0453615151345729,2.5
-0.1379015296697616,-0.0156517270952463,0.0872494131326675,2.5
-0.0244551263749599,-0.0051797516644001,0.0540881641209125,2.51
-0.0995042845606803,0.0698694065213203,-0.0645942315459251,2.51
0.0017248113872483,0.045434795320034,-0.0820475220680236,2.52
0.0610660053789615,0.0105282114818692,-0.0680848881602287,2.52
0.0994632467627525,-0.0086704101413488,-0.0611035674810409,2.53
0.0732833072543144,0.0419441387057304,-0.0977554842829704,2.53
0.1081898957490921,0.0210001859813928,-0.0506315901875495,2.54
0.1081898957490921,-0.0069250809028744,-0.0087436903268098,2.54
0.068047322332859,-0.0208877157419919,0.0122002605348825,2.55
0.0139421159401535,0.0297268312424421,-0.0279423128813505,2.55
-0.0070018349215388,0.0157641973346471,-0.0069983615539968,2.56
-0.0262004565447568,5.6235880038002506e-05,0.0122002605348825,2.56
-0.0314364433288574,-0.0086704101413488,0.0104549312964081,2.57
-0.0262004565447568,0.0489254556596279,-0.0314329676330089,2.57
-0.0698336884379386,0.0349628217518329,-0.047140933573246,2.58
0.0313954055309295,0.001801565173082,0.0104549312964081,2.58
0.0715379789471626,-0.0191423874348402,0.031398881226778,2.59
0.0244140923023223,0.019254857674241,-0.0192156676203012,2.59
0.0872459411621093,0.0244908444583416,-0.0506315901875495,2.6
0.0331407375633716,0.0105282114818692,-0.0104890195652842,2.6
0.0942272618412971,-0.0121610686182975,0.00347361410968,2.61
-0.089032307267189,0.0471801273524761,-0.0558675788342952,2.61
-0.0541257262229919,0.0244908444583416,-0.0715755447745323,2.62
-0.0488897375762462,5.6235880038002506e-05,-1.704443639027886e-05,2.62
-0.0436537489295005,-0.0173970572650432,0.017436247318983,2.63
-0.0331817753612995,0.0419441387057304,-0.0488862618803978,2.63
-0.0488897375762462,0.0297268312424421,-0.0401596166193485,2.64
-0.0331817753612995,-0.0226330440491437,0.0907400697469711,2.64
0.1099352240562439,-0.0296143610030412,0.118665337562561,2.65
-2.0517873053904623e-05,0.0384534820914268,0.031398881226778,2.65
0.0593206733465194,-0.0173970572650432,0.0977213904261589,2.66
0.0348860658705234,0.0436894670128822,-0.0087436903268098,2.67
0.0750286355614662,-0.0121610686182975,0.0732867792248725,2.69
-0.094268299639225,0.0541614443063735,-0.020960995927453,2.69
0.0244140923023223,0.0506707839667797,-0.0419049449265003,2.7
-0.0453990772366523,5.6235880038002506e-05,0.0383802019059658,2.7
0.0174327753484249,-0.0226330440491437,0.0645601376891136,2.71
0.0191781055182218,0.0506707839667797,-0.020960995927453,2.71
-0.0453990772366523,0.0628880858421325,-0.0628488957881927,2.72
-0.0192191395908594,0.0052922237664461,0.0279082227498292,2.72
0.0383767262101173,-0.0173970572650432,0.069796122610569,2.73
-0.1047402769327163,0.0419441387057304,-0.0366689562797546,2.73
-0.00351117644459,0.061142761260271,-0.0837928503751754,2.74
-0.022709796205163,0.0140188699588179,-1.704443639027886e-05,2.74
-0.0244551263749599,-0.0296143610030412,0.0680507943034172,2.75
0.0436127111315727,0.0210001859813928,-0.0174703374505043,2.75
-0.1152122467756271,0.031472161412239,-0.0820475220680236,2.76
0.062811329960823,-0.0121610686182975,-1.704443639027886e-05,2.76
0.0244140923023223,-0.0278690326958894,0.0453615151345729,2.77
-0.094268299639225,0.0262361746281385,-0.0436502732336521,2.77
-0.0262004565447568,0.0349628217518329,-0.0401596166193485,2.78
-0.0052565056830644,-0.0191423874348402,0.06106948107481,2.78
0.0505940280854702,-0.0278690326958894,0.0907400697469711,2.79
0.0034701405093073,0.045434795320034,-0.0104890195652842,2.79
-2.0517873053904623e-05,0.0646334215998649,-0.0296876411885023,2.8
0.0924819335341453,-0.0139063978567719,0.0872494131326675,2.8
0.0348860658705234,-0.0121610686182975,0.0663054659962654,2.81
0.0174327753484249,0.0332174934446811,-0.0453956015408039,2.81
0.0226687621325254,0.0646334215998649,-0.0523769222199916,2.82
-0.0279457848519086,-0.0104157393798232,0.031398881226778,2.82
0.0313954055309295,-0.0104157393798232,0.0575788207352161,2.83
-0.0157284792512655,0.031472161412239,-0.0436502732336521,2.83
-0.0768150091171264,0.0576521009206771,-0.0488862618803978,2.84
0.0523393601179122,-0.0121610686182975,0.0436161868274211,2.84
-0.0017658470897004,-0.0121610686182975,0.0523428358137607,2.85
0.0209234338253736,0.019254857674241,-0.0244516544044017,2.85
-0.0471444092690944,0.0541614443063735,-0.020960995927453,2.86
0.0488486997783184,-0.0051797516644001,0.0645601376891136,2.86
0.0767739713191986,-0.0173970572650432,0.0837587565183639,2.87
0.0383767262101173,0.0384534820914268,-0.0087436903268098,2.87
-0.0279457848519086,0.0698694065213203,-0.0401596166193485,2.88
0.0907365977764129,0.0087828822433948,0.0331442132592201,2.88
0.0558300167322158,-0.0156517270952463,0.0261628944426774,2.89
0.0348860658705234,0.031472161412239,-0.0768115371465683,2.89
0.0715379789471626,0.0838320404291153,-0.1221900954842567,2.9
0.0174327753484249,-0.0051797516644001,0.00347361410968,2.9
0.062811329960823,-0.0261237043887376,0.029653551056981,2.91
0.0418673828244209,0.019254857674241,-0.0593582354485988,2.91
-0.0733243450522422,0.0419441387057304,-0.07855686545372,2.92
0.0593206733465194,-0.0069250809028744,0.0505975037813186,2.92
-0.00351117644459,-0.0383410081267356,0.0715414509177208,2.93
0.1151712089776992,5.6235880038002506e-05,0.0104549312964081,2.93
0.0121967867016792,0.0576521009206771,-0.0087436903268098,2.94
0.0924819335341453,0.0262361746281385,0.031398881226778,2.94
0.1465871334075927,5.6235880038002506e-05,0.0540881641209125,2.95
0.0121967867016792,0.0157641973346471,-0.0174703374505043,2.95
0.0139421159401535,0.045434795320034,-0.0261969845741987,2.96
-0.0645977035164833,0.0210001859813928,0.047106847167015,2.96
-0.0523803979158401,-0.0208877157419919,0.0680507943034172,2.97
-0.0401630923151969,-0.0173970572650432,0.0558334924280643,2.97
-0.1361562013626098,0.031472161412239,0.0348895415663719,2.98
-0.1239388957619667,0.0175095275044441,0.0488521754741668,2.98
-0.0279457848519086,-0.0121610686182975,0.0366348698735237,2.99
0.0139421159401535,0.0122735407203435,-0.033178299665451,2.99
-0.0087471641600131,0.0524161159992218,-0.1029914692044258,2.1
0.1116805523633956,0.0489254556596279,-0.0715755447745323,3.0
0.0872459411621093,-0.0121610686182975,-0.0436502732336521,3.1
0.0505940280854702,0.0332174934446811,-0.0698302164673805,3.2
0.0523393601179122,0.0419441387057304,-0.0488862618803978,3.2
0.0383767262101173,-0.0365956760942935,0.017436247318983,3.3
0.0017248113872483,-0.0261237043887376,0.00347361410968,3.3
-0.0087471641600131,0.001801565173082,-0.020960995927453,3.4
-0.0960136279463768,0.0384534820914268,0.0087096020579338,3.4
-0.00351117644459,-0.0191423874348402,0.0505975037813186,3.5
0.0017248113872483,-0.0191423874348402,0.0523428358137607,3.5
-0.0663430318236351,0.019254857674241,-0.0035077028442174,3.6
-0.0663430318236351,0.0524161159992218,-0.0122343488037586,3.6
0.0767739713191986,-0.0034344226587563,0.0366348698735237,3.7
0.0156874451786279,-0.0243783742189407,0.0418708585202693,3.7
0.0767739713191986,0.0070375530049204,-0.0349236279726028,3.8
-0.0209644678980112,0.0646334215998649,-0.0733208730816841,3.8
0.0471033714711666,-0.0173970572650432,0.0052189431153237,3.9
0.0575753450393676,-0.0208877157419919,0.0244175642728805,3.9
-0.0663430318236351,0.001801565173082,-0.0384142883121967,3.1
-0.0419084206223487,0.0628880858421325,-0.0593582354485988,3.1
-0.0401630923151969,5.6235880038002506e-05,-0.0069983615539968,3.11
0.0174327753484249,-0.0173970572650432,0.0122002605348825,3.11
0.0174327753484249,0.0175095275044441,-0.0750662013888359,3.12
-0.1448828428983688,0.0768507272005081,-0.0733208730816841,3.12
0.0348860658705234,-0.0173970572650432,0.047106847167015,3.13
0.0593206733465194,-0.0313596874475479,0.0855040848255157,3.13
0.0139421159401535,0.0210001859813928,-0.0174703374505043,3.14
0.0034701405093073,0.1065213233232498,-0.0488862618803978,3.14
0.0383767262101173,0.0419441387057304,0.0122002605348825,3.15
0.0244140923023223,0.0436894670128822,0.0418708585202693,3.15
0.0383767262101173,0.0785960555076599,-0.0104890195652842,3.16
-0.0872869789600372,0.1379372477531433,-0.0174703374505043,3.16
-0.0157284792512655,0.0943040177226066,0.0540881641209125,3.17
0.062811329960823,0.0681240782141685,0.0855040848255157,3.17
-0.0645977035164833,0.0925586894154548,0.0156909171491861,3.18
0.0436127111315727,0.1501545459032058,-0.0122343488037586,3.18
-0.0785603374242782,0.1169932931661605,0.0244175642728805,3.19
0.0313954055309295,0.0768507272005081,0.0663054659962654,3.19
0.0383767262101173,0.1065213233232498,-0.0035077028442174,3.2
-0.0628523677587509,0.1623718589544296,-0.0384142883121967,3.2
-0.0174738094210624,0.1414279043674469,0.0087096020579338,3.21
-0.0122378226369619,0.0977946743369102,0.0558334924280643,3.21
0.0052154697477817,0.1030306592583656,-0.0104890195652842,3.22
-0.0174738094210624,0.148409217596054,-0.0419049449265003,3.22
-0.0593617111444473,0.1553905457258224,-0.0122343488037586,3.23
0.0226687621325254,0.0943040177226066,0.0488521754741668,3.23
0.0174327753484249,0.0681240782141685,0.0261628944426774,3.24
-0.050635065883398,0.0943040177226066,0.0017282847547903,3.24
0.0069607989862561,0.1169932931661605,0.017436247318983,3.25
0.0523393601179122,0.104775995016098,0.0383802019059658,3.25
-0.0471444092690944,0.0751053914427757,0.029653551056981,3.26
0.0663019940257072,0.1065213233232498,0.0087096020579338,3.26
-0.0698336884379386,0.1501545459032058,0.017436247318983,3.27
0.0296500790864229,0.1292106062173843,0.0558334924280643,3.27
0.0226687621325254,0.0873226970434188,0.0663054659962654,3.28
-0.0855416506528854,0.1082666516304016,0.0453615151345729,3.28
0.0174327753484249,0.1292106062173843,0.0488521754741668,3.29
-2.0517873053904623e-05,0.1449185609817505,0.0366348698735237,3.29
-0.0174738094210624,0.1030306592583656,0.0436161868274211,3.3
0.0121967867016792,0.1100119799375534,0.00347361410968,3.3
-0.0611070431768894,0.1327012628316879,0.017436247318983,3.31
0.0575753450393676,0.1257199347019195,0.0139455897733569,3.31
0.0174327753484249,0.1065213233232498,0.0436161868274211,3.32
-0.0087471641600131,0.0960493460297584,0.0418708585202693,3.32
0.0052154697477817,0.1082666516304016,0.0837587565183639,3.33
0.0453580394387245,0.085577368736267,0.0889947414398193,3.33
-0.0628523677587509,0.0297268312424421,0.1116840243339538,3.34
0.0610660053789615,0.0105282114818692,0.0732867792248725,3.34
-0.0488897375762462,0.0332174934446811,0.029653551056981,3.35
0.0697926506400108,0.019254857674241,0.0052189431153237,3.35
-0.0384177640080452,0.0122735407203435,0.00347361410968,3.36
0.0313954055309295,0.0122735407203435,-0.0069983615539968,3.36
0.0121967867016792,0.0244908444583416,0.0122002605348825,3.37
0.0436127111315727,0.0803413838148117,-0.0139796780422329,3.37
0.0366313941776752,0.0471801273524761,-1.704443639027886e-05,3.38
0.0471033714711666,0.0244908444583416,0.00347361410968,3.38
0.0279047507792711,0.0541614443063735,-0.0244516544044017,3.39
0.0924819335341453,0.0838320404291153,-0.0698302164673805,3.39
0.0069607989862561,0.0384534820914268,-0.0279423128813505,3.4
-0.0384177640080452,0.001801565173082,-0.0087436903268098,3.4
-0.0052565056830644,0.019254857674241,-0.0296876411885023,3.41
0.0261594224721193,0.099540002644062,-0.0715755447745323,3.41
-0.0157284792512655,0.0489254556596279,-1.704443639027886e-05,3.42
0.0069607989862561,0.0122735407203435,0.0226722341030836,3.42
-2.0517873053904623e-05,0.0105282114818692,0.00347361410968,3.43
0.0279047507792711,0.085577368736267,-0.020960995927453,3.43
0.0191781055182218,0.0524161159992218,0.0139455897733569,3.44
-0.0174738094210624,0.0035468942951411,0.0488521754741668,3.44
0.062811329960823,5.6235880038002506e-05,0.0069642723537981,3.45
-0.0820509940385818,0.0733600631356239,-0.020960995927453,3.45
-0.0366724319756031,0.0716147348284721,-0.0261969845741987,3.46
0.0174327753484249,0.0349628217518329,0.0261628944426774,3.46
-0.0785603374242782,0.031472161412239,0.0418708585202693,3.47
-0.0453990772366523,0.0803413838148117,0.0383802019059658,3.47
-0.0262004565447568,0.1274652779102325,-0.0035077028442174,3.48
-0.0157284792512655,0.0943040177226066,-0.0087436903268098,3.48
0.0156874451786279,0.0681240782141685,-1.704443639027886e-05,3.49
-0.022709796205163,0.1152479648590087,-0.0698302164673805,3.49
0.0750286355614662,0.148409217596054,-0.1134634464979171,3.5
0.0750286355614662,0.0943040177226066,-0.0436502732336521,3.5
0.0366313941776752,0.0733600631356239,-0.0017623737221583,3.51
0.054084688425064,0.0890680253505706,-0.0314329676330089,3.51
0.068047322332859,0.1379372477531433,-0.0384142883121967,3.52
0.0174327753484249,0.0768507272005081,0.031398881226778,3.52
0.0104514574632048,0.0646334215998649,0.0558334924280643,3.53
-0.00351117644459,0.0803413838148117,0.0139455897733569,3.53
-0.0052565056830644,0.1292106062173843,-0.0139796780422329,3.54
-0.0017658470897004,0.0977946743369102,0.0052189431153237,3.54
-0.0384177640080452,0.0820867121219635,0.0279082227498292,3.55
0.0436127111315727,0.0593974292278289,0.0069642723537981,3.55
0.0209234338253736,0.1466638892889022,-0.0192156676203012,3.56
-0.0122378226369619,0.1117573082447052,0.0052189431153237,3.56
0.0436127111315727,0.0820867121219635,0.0802680999040603,3.57
0.068047322332859,0.0297268312424421,0.0715414509177208,3.57
0.0279047507792711,0.1274652779102325,-0.0052530323155224,3.58
0.0715379789471626,0.1344465911388397,-0.0174703374505043,3.58
-0.0192191395908594,0.0908133536577224,0.047106847167015,3.59
0.0436127111315727,0.0279815029352903,0.0366348698735237,3.59
-0.0453990772366523,0.1222292855381965,-0.0174703374505043,3.6
-0.089032307267189,0.1379372477531433,-0.0541222505271434,3.6
-0.0070018349215388,0.0908133536577224,0.0645601376891136,3.61
-0.1204482391476631,0.0105282114818692,0.0767774432897567,3.61
-0.0157284792512655,0.0838320404291153,0.06106948107481,3.62
0.0174327753484249,0.1239746138453483,-1.704443639027886e-05,3.62
-0.0174738094210624,0.0768507272005081,0.109938696026802,3.63
0.0767739713191986,-0.0139063978567719,0.1343733072280883,3.63
-2.0517873053904623e-05,0.0681240782141685,0.047106847167015,3.64
0.0401220545172691,0.0943040177226066,-0.0506315901875495,3.64
0.0104514574632048,0.0436894670128822,0.0645601376891136,3.65
-0.0174738094210624,-0.03310501947999,0.0942307338118553,3.65
0.0348860658705234,0.0332174934446811,0.0226722341030836,3.66
0.0017248113872483,0.0960493460297584,-0.0750662013888359,3.66
-0.0925229713320732,0.0733600631356239,-0.0087436903268098,3.67
-0.0087471641600131,5.6235880038002506e-05,0.0767774432897567,3.67
-0.0017658470897004,0.0332174934446811,0.0628148019313812,3.68
-0.0558710545301437,0.0977946743369102,-0.0593582354485988,3.68
0.0471033714711666,0.0925586894154548,-0.0087436903268098,3.69
-0.089032307267189,0.0122735407203435,0.0505975037813186,3.69
0.0174327753484249,5.6235880038002506e-05,0.0872494131326675,3.7
-0.0017658470897004,0.0838320404291153,-0.033178299665451,3.7
-0.0785603374242782,0.1012853309512138,-0.0593582354485988,3.71
0.0313954055309295,0.0244908444583416,0.0348895415663719,3.71
-0.0733243450522422,-0.0226330440491437,0.0750321075320243,3.72
-2.0517873053904623e-05,0.0471801273524761,-0.0035077028442174,3.72
-0.0262004565447568,0.0576521009206771,-0.0157250072807073,3.73
0.0104514574632048,-0.0121610686182975,0.0907400697469711,3.73
0.0820099562406539,-0.0383410081267356,0.118665337562561,3.74
0.0174327753484249,0.0593974292278289,-0.0349236279726028,3.74
-0.0174738094210624,0.0890680253505706,-0.057612907141447,3.75
-0.0279457848519086,0.0087828822433948,0.0523428358137607,3.75
-0.0262004565447568,-0.0296143610030412,0.0907400697469711,3.76
-0.1274295598268509,0.0367081500589847,-0.0122343488037586,3.76
-0.0122378226369619,0.0873226970434188,-0.0279423128813505,3.77
-0.1117215901613235,0.0210001859813928,0.0558334924280643,3.77
-0.0663430318236351,-0.0191423874348402,0.0366348698735237,3.78
0.0732833072543144,0.0768507272005081,-0.0803021937608718,3.78
-0.0872869789600372,0.1239746138453483,-0.1134634464979171,3.79
0.0471033714711666,0.0768507272005081,0.0122002605348825,3.79
0.0436127111315727,0.0210001859813928,0.0348895415663719,3.8
0.0226687621325254,0.1187386214733123,-0.0645942315459251,3.8
0.0959725901484489,0.1763344854116439,-0.087283506989479,3.81
-0.0576163828372955,0.1379372477531433,-1.704443639027886e-05,3.81
-0.0139831518754363,0.0681240782141685,0.0488521754741668,3.82
0.0331407375633716,0.1414279043674469,-0.0506315901875495,3.82
-0.0419084206223487,0.221713051199913,-0.1047368049621582,3.83
-0.0262004565447568,0.1833158135414123,0.0348895415663719,3.83
-0.0401630923151969,0.1100119799375534,0.1047027111053466,3.84
-0.0122378226369619,0.1239746138453483,0.0663054659962654,3.84
0.0855006128549575,0.2147317379713058,-0.0139796780422329,3.85
-0.0192191395908594,0.1955331116914749,0.0628148019313812,3.85
-0.0087471641600131,0.1169932931661605,0.129137322306633,3.86
0.1151712089776992,0.1065213233232498,0.069796122610569,3.86
-0.0209644678980112,0.1833158135414123,-0.0192156676203012,3.87
0.0313954055309295,0.1920424550771713,0.0139455897733569,3.87
-0.0523803979158401,0.1169932931661605,0.0977213904261589,3.88
-0.0017658470897004,0.0925586894154548,0.0593241490423679,3.88
-0.0122378226369619,0.1798251420259475,-0.0227063242346048,3.89
-0.0279457848519086,0.1902971267700195,0.0139455897733569,3.89
0.0331407375633716,0.1274652779102325,0.0889947414398193,3.9
0.0994632467627525,0.1239746138453483,0.0226722341030836,3.9
0.0453580394387245,0.1868064701557159,-0.0645942315459251,3.91
0.0488486997783184,0.221713051199913,-0.0558675788342952,3.91
0.062811329960823,0.1536452174186706,0.0628148019313812,3.92
0.0069607989862561,0.1344465911388397,0.01918157748878,3.92
-0.0104924933984875,0.1641171872615814,-0.0384142883121967,3.93
-0.0680883601307869,0.2391663491725921,-0.0628488957881927,3.93
-0.0523803979158401,0.1763344854116439,0.017436247318983,3.94
-0.0419084206223487,0.1449185609817505,0.0279082227498292,3.94
-0.1082309335470199,0.1623718589544296,-0.0453956015408039,3.95
-0.0349271036684513,0.2234583795070648,-0.0192156676203012,3.95
-0.0384177640080452,0.1902971267700195,0.0558334924280643,3.96
-2.0517873053904623e-05,0.1623718589544296,0.0820134282112121,3.96
0.0331407375633716,0.1536452174186706,0.0732867792248725,3.97
-0.0663430318236351,0.2094957530498504,0.0558334924280643,3.97
-0.0471444092690944,0.1972784399986267,0.0645601376891136,3.98
-0.022709796205163,0.1850611418485641,0.0383802019059658,3.98
-0.0401630923151969,0.1623718589544296,0.00347361410968,3.99
-0.0628523677587509,0.2182223945856094,-0.0593582354485988,3.99
-2.0517873053904623e-05,0.2234583795070648,-0.0698302164673805,3.1
0.0401220545172691,0.1745891571044922,-0.0174703374505043,4.0
0.0296500790864229,0.1361919194459915,-0.0017623737221583,4.1
0.0471033714711666,0.1920424550771713,-0.0174703374505043,4.1
0.054084688425064,0.2077504098415374,-0.0174703374505043,4.2
0.0977179184556007,0.1763344854116439,0.0558334924280643,4.2
-0.0296911131590604,0.1518998742103576,0.0401255302131176,4.3
-0.0104924933984875,0.158881202340126,0.0488521754741668,4.3
0.0052154697477817,0.2025144249200821,0.0750321075320243,4.4
0.0174327753484249,0.1955331116914749,0.0820134282112121,4.4
0.0453580394387245,0.1833158135414123,0.0628148019313812,4.5
0.0366313941776752,0.1641171872615814,0.0628148019313812,4.5
0.12564317882061,0.2042597532272339,0.029653551056981,4.6
0.0767739713191986,0.2094957530498504,0.0122002605348825,4.6
0.0785192996263504,0.1815704703330993,-1.704443639027886e-05,4.7
0.0313954055309295,0.1606265306472778,0.01918157748878,4.7
-0.0279457848519086,0.2182223945856094,-0.0052530323155224,4.8
-2.0517873053904623e-05,0.2269490361213684,-0.0174703374505043,4.8
-0.0558710545301437,0.1833158135414123,0.0279082227498292,4.9
-0.0872869789600372,0.1309559345245361,0.0855040848255157,4.9
-0.0488897375762462,0.1937877833843231,0.031398881226778,4.1
0.0121967867016792,0.230439692735672,-0.0069983615539968,4.1
-0.0209644678980112,0.1868064701557159,0.0523428358137607,4.11
0.0837552845478057,0.1431732326745987,0.0959760621190071,4.11
0.0715379789471626,0.2077504098415374,0.0226722341030836,4.12
0.0261594224721193,0.230439692735672,-0.0157250072807073,4.12
0.136115163564682,0.1990237683057785,0.0488521754741668,4.13
-0.0785603374242782,0.1396825760602951,0.1029573753476142,4.13
0.1396058201789856,0.1990237683057785,0.0558334924280643,4.14
-0.0262004565447568,0.2566196322441101,-0.0279423128813505,4.14
0.0139421159401535,0.2286943644285202,0.0087096020579338,4.15
0.0296500790864229,0.1728438287973404,0.069796122610569,4.15
0.0052154697477817,0.2269490361213684,-1.704443639027886e-05,4.16
-2.0517873053904623e-05,0.2827995717525482,-0.1239354237914085,4.16
0.0453580394387245,0.2723276019096374,-0.0890288352966308,4.17
-0.0663430318236351,0.2164770662784576,-0.0419049449265003,4.17
-0.0174738094210624,0.2513836324214935,-0.0907741636037826,4.18
-0.1483734995126724,0.3037435114383697,-0.1256807446479797,4.18
-0.4188995361328125,0.2601102888584137,-0.047140933573246,4.19
-0.329887717962265,0.1780798137187957,0.06106948107481,4.19
-0.3019624650478363,0.2444023340940475,0.0052189431153237,4.2
-0.439843475818634,0.2618556320667267,-0.0436502732336521,4.2
-0.4014462232589721,0.2391663491725921,0.0122002605348825,4.21
-0.4031915664672851,0.1658625155687332,0.0558334924280643,4.21
-0.151864156126976,0.212986409664154,0.00347361410968,4.22
-0.0855416506528854,0.3002528548240661,-0.0296876411885023,4.22
-0.2077146917581558,0.3019981980323791,0.0261628944426774,4.23
-0.0401630923151969,0.2252037078142166,0.0872494131326675,4.23
-0.0471444092690944,0.2409116774797439,0.0453615151345729,4.24
-0.0453990772366523,0.3089795112609863,0.0156909171491861,4.24
-0.2077146917581558,0.3351594507694244,0.0663054659962654,4.25
-0.2234226614236831,0.2827995717525482,0.0645601376891136,4.25
-0.1902614086866378,0.2810542583465576,0.0383802019059658,4.26
-0.2129506915807724,0.3246874809265136,-1.704443639027886e-05,4.26
-0.3386143743991852,0.3508674204349518,0.00347361410968,4.27
-0.2251679897308349,0.3019981980323791,0.0104549312964081,4.27
-0.2757825255393982,0.2810542583465576,0.0104549312964081,4.28
-0.1728081107139587,0.2915262281894684,-0.0035077028442174,4.28
-0.1605908125638961,0.338650107383728,-0.0174703374505043,4.29
-0.2757825255393982,0.2775635719299316,-0.0052530323155224,4.29
-0.0907776355743408,0.2810542583465576,0.01918157748878,4.3
-0.0977589562535286,0.295016884803772,-0.0069983615539968,4.3
-0.2740371823310852,0.3246874809265136,-1.704443639027886e-05,4.31
-0.1221935674548149,0.3002528548240661,0.0087096020579338,4.31
-0.205969363451004,0.3089795112609863,0.0104549312964081,4.32
-0.1274295598268509,0.3019981980323791,0.01918157748878,4.32
-0.2077146917581558,0.3299234509468078,0.01918157748878,4.33
-0.2583292424678802,0.3089795112609863,0.0104549312964081,4.33
-0.1064856052398681,0.3107248544692993,-1.704443639027886e-05,4.34
-0.2862544953823089,0.3037435114383697,0.0505975037813186,4.34
-0.1571001559495926,0.3019981980323791,0.0750321075320243,4.35
-0.2129506915807724,0.295016884803772,0.0575788207352161,4.35
-0.197242721915245,0.295016884803772,0.0785227715969085,4.36
-0.0523803979158401,0.3246874809265136,0.0994667187333107,4.36
-0.153609499335289,0.3177061676979065,0.0750321075320243,4.37
-0.134410873055458,0.3229421377182007,0.0663054659962654,4.37
-0.0768150091171264,0.3159608244895935,0.0418708585202693,4.38
-0.1867707520723343,0.3334141075611114,0.0680507943034172,4.38
-0.0366724319756031,0.3334141075611114,0.0505975037813186,4.39
-0.2845091819763183,0.340395450592041,-0.0052530323155224,4.39
-0.1762987673282623,0.3246874809265136,-0.0069983615539968,4.4
-0.1274295598268509,0.3264327943325043,0.01918157748878,4.4
-0.2356399595737457,0.3264327943325043,-1.704443639027886e-05,4.41
-0.216441348195076,0.3054888546466827,-0.033178299665451,4.41
-0.1693174540996551,0.338650107383728,-0.033178299665451,4.42
-0.0995042845606803,0.3159608244895935,-0.0017623737221583,4.42
-0.1640814691781997,0.3578487336635589,-0.0157250072807073,4.43
-0.2530932426452636,0.3019981980323791,-0.0279423128813505,4.43
-0.1379015296697616,0.3229421377182007,-0.0384142883121967,4.44
-0.1571001559495926,0.3299234509468078,-0.020960995927453,4.44
-0.2565838992595672,0.338650107383728,-0.0139796780422329,4.45
-0.2077146917581558,0.3019981980323791,0.01918157748878,4.45
-0.2757825255393982,0.274072915315628,0.0261628944426774,4.46
-0.1082309335470199,0.3299234509468078,0.017436247318983,4.46
-0.2845091819763183,0.3089795112609863,0.0156909171491861,4.47
-0.2740371823310852,0.3037435114383697,0.0732867792248725,4.47
-0.1326655447483062,0.3089795112609863,0.0279082227498292,4.48
-0.2513478994369507,0.4328978955745697,-0.0733208730816841,4.48
-0.1588454842567443,0.4154445827007293,-0.0645942315459251,4.49
-0.2757825255393982,0.4381338655948639,-0.0750662013888359,4.49
-0.0366724319756031,0.4747857749462127,-0.092519499361515,4.5
-0.1274295598268509,0.5271456241607666,-0.1082274615764617,4.5
-0.2042240351438522,0.5358722805976868,-0.0017623737221583,4.51
-0.0296911131590604,0.5079470276832581,0.06106948107481,4.51
-0.1361562013626098,0.5445989370346069,0.109938696026802,4.52
-0.0174738094210624,0.5254002809524536,0.1134293526411056,4.52
-0.1832800954580307,0.4957297444343567,0.1657892316579818,4.53
-0.2007333785295486,0.445115178823471,0.1937144994735717,4.53
-0.1256842166185379,0.4817671179771423,0.1430999487638473,4.54
-0.2932358086109161,0.4730404615402221,0.1081933677196502,4.54
-0.1640814691781997,0.4398792088031769,0.1029573753476142,4.55
-0.2269133180379867,0.4416245222091675,0.0942307338118553,4.55
-0.1413921862840652,0.4346432089805603,0.0226722341030836,4.56
-0.2094600349664688,0.4625684916973114,0.0261628944426774,4.56
-0.1954973936080932,0.4154445827007293,0.0261628944426774,4.57
-0.1658267974853515,0.4433698654174804,0.017436247318983,4.57
-0.2496026009321212,0.4625684916973114,0.0401255302131176,4.58
-0.1920067369937896,0.4590778350830078,0.1204106733202934,4.58
-0.2146960198879242,0.466059148311615,0.1361186355352401,4.59
-0.2827638387680053,0.4747857749462127,0.0785227715969085,4.59
-0.1954973936080932,0.5358722805976868,0.0575788207352161,4.6
-0.3333783745765686,0.4782764613628387,0.0994667187333107,4.6
-0.1902614086866378,0.4835124313831329,0.0907400697469711,4.61
-0.3700303137302398,0.5166736841201782,0.0226722341030836,4.61
-0.1902614086866378,0.5271456241607666,0.0209269057959318,4.62
-0.1623361408710479,0.5184189677238464,0.06106948107481,4.62
-0.3211610913276672,0.4765311181545257,0.031398881226778,4.63
-0.0715790167450904,0.5603069067001343,-0.0227063242346048,4.63
-0.1117215901613235,0.5358722805976868,-0.0279423128813505,4.64
-2.0517873053904623e-05,0.541108250617981,-0.0052530323155224,4.64
0.0750286355614662,0.5550708770751953,-0.0384142883121967,4.65
-0.0157284792512655,0.5987041592597961,-0.0750662013888359,4.65
0.1657857596874237,0.6266294121742249,-0.0593582354485988,4.66
-0.0611070431768894,0.584741473197937,-1.704443639027886e-05,4.66
0.0156874451786279,0.589977502822876,0.0436161868274211,4.67
-0.1099762618541717,0.6283747553825378,-0.0244516544044017,4.67
-0.1675721257925033,0.6405920386314392,-0.0384142883121967,4.68
-0.134410873055458,0.589977502822876,-0.0052530323155224,4.68
-0.2792731821537018,0.584741473197937,-0.0052530323155224,4.69
-0.0541257262229919,0.58648681640625,-0.0314329676330089,4.69
-0.1780440956354141,0.5760148763656616,-0.0139796780422329,4.7
0.0209234338253736,0.5358722805976868,0.0942307338118553,4.7
0.0889912694692611,0.5323816537857056,0.1012120470404625,4.71
0.0279047507792711,0.5655428767204285,0.0558334924280643,4.71
0.1937110275030136,0.588232159614563,0.0855040848255157,4.72
0.1204072013497352,0.5655428767204285,0.129137322306633,4.72
0.1535684615373611,0.5777601599693298,0.109938696026802,4.73
-0.0104924933984875,0.6021947860717773,0.0680507943034172,4.73
0.0697926506400108,0.6021947860717773,0.0889947414398193,4.74
-2.0517873053904623e-05,0.591722846031189,0.1221560016274452,4.74
-0.1448828428983688,0.5969588160514832,0.0680507943034172,4.75
-0.0680883601307869,0.6091760993003845,0.0523428358137607,4.75
-0.0855416506528854,0.5672882199287415,0.0645601376891136,4.76
-0.1064856052398681,0.5812508463859558,0.0767774432897567,4.76
-0.1204482391476631,0.5620522499084473,0.0348895415663719,4.77
0.0593206733465194,0.5760148763656616,0.0593241490423679,4.77
0.0366313941776752,0.5795055031776428,0.069796122610569,4.78
0.0767739713191986,0.6109214425086975,0.0593241490423679,4.78
0.1099352240562439,0.6161574125289917,0.06106948107481,4.79
0.1046992391347885,0.6056854724884033,0.0785227715969085,4.79
0.0872459411621093,0.6283747553825378,0.069796122610569,4.8
-0.0628523677587509,0.6144121289253235,0.0750321075320243,4.8
0.0261594224721193,0.6179027557373047,0.0488521754741668,4.81
-0.08030566573143,0.6231387257575989,0.0628148019313812,4.81
-0.0174738094210624,0.6231387257575989,0.0802680999040603,4.82
-0.1762987673282623,0.58648681640625,0.0540881641209125,4.82
-0.0122378226369619,0.591722846031189,0.047106847167015,4.83
0.0209234338253736,0.5987041592597961,0.0505975037813186,4.83
-0.075069673359394,0.584741473197937,0.0540881641209125,4.84
0.0174327753484249,0.589977502822876,0.0488521754741668,4.84
0.0488486997783184,0.588232159614563,0.047106847167015,4.85
0.0802646279335022,0.591722846031189,0.0767774432897567,4.85
-0.0872869789600372,0.5952134728431702,0.0645601376891136,4.86
0.0802646279335022,0.6004494428634644,0.0505975037813186,4.86
0.0017248113872483,0.6074307560920715,0.069796122610569,4.87
-0.0645977035164833,0.6091760993003845,0.0959760621190071,4.87
-0.0453990772366523,0.5987041592597961,0.0558334924280643,4.88
0.0453580394387245,0.6231387257575989,0.0453615151345729,4.88
-0.00351117644459,0.6056854724884033,0.0820134282112121,4.89
-0.0820509940385818,0.6039401292800903,0.0540881641209125,4.89
0.0348860658705234,0.6213934421539307,-0.0052530323155224,4.9
0.0244140923023223,0.6091760993003845,0.0209269057959318,4.9
-0.0296911131590604,0.6074307560920715,0.0680507943034172,4.91
-0.0104924933984875,0.5969588160514832,0.0837587565183639,4.91
0.0244140923023223,0.6021947860717773,0.0837587565183639,4.92
-0.0436537489295005,0.5987041592597961,0.183242529630661,4.92
0.0820099562406539,0.5934681296348572,0.2425837218761444,4.93
0.0296500790864229,0.5987041592597961,0.1972051560878753,4.93
0.0069607989862561,0.6475733518600464,0.1326279789209365,4.94
-0.0907776355743408,0.6248840689659119,0.0924854055047035,4.94
-0.022709796205163,0.6039401292800903,0.0680507943034172,4.95
-0.0052565056830644,0.6458280086517334,-0.0122343488037586,4.95
0.0087061282247304,0.6196480989456177,0.017436247318983,4.96
0.0505940280854702,0.6039401292800903,0.047106847167015,4.96
0.0715379789471626,0.6405920386314392,0.0209269057959318,4.97
0.1657857596874237,0.6388466954231262,0.0226722341030836,4.97
0.0034701405093073,0.6231387257575989,0.0540881641209125,4.98
0.0855006128549575,0.6213934421539307,0.0628148019313812,4.98
-0.0419084206223487,0.633610725402832,0.0558334924280643,4.99
-0.022709796205163,0.6231387257575989,0.0645601376891136,4.99
-0.1483734995126724,0.6179027557373047,0.0767774432897567,4.1
0.0174327753484249,0.6109214425086975,0.0453615151345729,5.0
-0.1483734995126724,0.6126667857170105,0.0715414509177208,5.1
-0.0837963223457336,0.5795055031776428,0.1029573753476142,5.1
0.0174327753484249,0.5795055031776428,0.0750321075320243,5.2
-0.0104924933984875,0.5987041592597961,0.0942307338118553,5.2
-0.0174738094210624,0.5952134728431702,0.1081933677196502,5.3
0.0837552845478057,0.58648681640625,0.1448452770709991,5.3
0.0244140923023223,0.6248840689659119,0.1326279789209365,5.4
-0.0628523677587509,0.6266294121742249,0.1588079184293747,5.4
0.0226687621325254,0.6213934421539307,0.1954598277807235,5.5
-0.0331817753612995,0.6388466954231262,0.1448452770709991,5.5
-0.0907776355743408,0.6266294121742249,0.0994667187333107,5.6
-0.1256842166185379,0.5934681296348572,0.0855040848255157,5.6
0.0104514574632048,0.58648681640625,0.0732867792248725,5.7
-0.0698336884379386,0.6231387257575989,0.0122002605348825,5.7
0.1046992391347885,0.6161574125289917,0.017436247318983,5.8
0.062811329960823,0.6039401292800903,0.069796122610569,5.8
0.0994632467627525,0.591722846031189,0.0924854055047035,5.9
-0.0052565056830644,0.6109214425086975,0.0732867792248725,5.9
0.1483324617147445,0.6266294121742249,0.1064480394124984,5.1
0.0174327753484249,0.631865382194519,0.1378639638423919,5.1
0.0191781055182218,0.6248840689659119,0.1221560016274452,5.11
-0.0262004565447568,0.631865382194519,0.0959760621190071,5.11
0.0924819335341453,0.6109214425086975,0.1273919939994812,5.12
-0.0471444092690944,0.6039401292800903,0.1064480394124984,5.12
-0.0488897375762462,0.6179027557373047,0.1012120470404625,5.13
0.0802646279335022,0.6126667857170105,0.1151746809482574,5.13
0.0121967867016792,0.6231387257575989,0.118665337562561,5.14
0.0331407375633716,0.635356068611145,0.06106948107481,5.14
0.0313954055309295,0.6405920386314392,0.0750321075320243,5.15
0.1675310879945755,0.6405920386314392,0.0628148019313812,5.15
-0.08030566573143,0.6371013522148132,0.0348895415663719,5.16
0.0889912694692611,0.6510640382766724,0.0331442132592201,5.16
0.0593206733465194,0.6580453515052795,0.0488521754741668,5.17
-0.022709796205163,0.6388466954231262,0.0663054659962654,5.17
-0.1187029033899307,0.6266294121742249,0.0750321075320243,5.18
0.0436127111315727,0.6371013522148132,0.0558334924280643,5.18
-0.0960136279463768,0.635356068611145,0.0505975037813186,5.19
-0.1379015296697616,0.6231387257575989,-0.0052530323155224,5.19
-0.0820509940385818,0.631865382194519,-0.0017623737221583,5.2
-0.0070018349215388,0.6161574125289917,0.0366348698735237,5.2
-0.1728081107139587,0.6161574125289917,0.0244175642728805,5.21
0.0802646279335022,0.630120038986206,0.029653551056981,5.21
0.0663019940257072,0.6423373818397522,0.0540881641209125,5.22
-0.0314364433288574,0.630120038986206,0.047106847167015,5.22
0.0331407375633716,0.6213934421539307,0.0453615151345729,5.23
0.0924819335341453,0.6196480989456177,0.0907400697469711,5.23
-0.0017658470897004,0.630120038986206,0.1012120470404625,5.24
0.0279047507792711,0.6423373818397522,0.109938696026802,5.24
0.0331407375633716,0.6231387257575989,0.1012120470404625,5.25
-0.0314364433288574,0.6248840689659119,0.109938696026802,5.25
-0.0122378226369619,0.630120038986206,0.0889947414398193,5.26
-0.0262004565447568,0.6161574125289917,0.06106948107481,5.26
0.0697926506400108,0.6423373818397522,0.0732867792248725,5.27
-0.0541257262229919,0.6371013522148132,0.1169200092554092,5.27
0.0575753450393676,0.6091760993003845,0.0785227715969085,5.28
0.0942272618412971,0.631865382194519,0.0558334924280643,5.28
0.1099352240562439,0.6580453515052795,0.0820134282112121,5.29
0.0418673828244209,0.6423373818397522,0.0593241490423679,5.29
0.1099352240562439,0.631865382194519,0.0244175642728805,5.3
0.0174327753484249,0.6859706044197083,0.0244175642728805,5.3
-0.0453990772366523,0.6458280086517334,0.1116840243339538,5.31
-2.0517873053904623e-05,0.6021947860717773,0.1535719335079193,5.31
-0.0122378226369619,0.6615359783172607,0.0942307338118553,5.32
-0.089032307267189,0.6545546650886536,0.0767774432897567,5.32
0.0017248113872483,0.6179027557373047,0.118665337562561,5.33
-0.0872869789600372,0.6248840689659119,0.1064480394124984,5.33
-0.0872869789600372,0.6423373818397522,0.06106948107481,5.34
-0.0593617111444473,0.6283747553825378,0.1064480394124984,5.34
-0.0314364433288574,0.633610725402832,0.1448452770709991,5.35
-0.1850254237651825,0.6126667857170105,0.123901329934597,5.35
-0.1029949411749839,0.6091760993003845,0.0855040848255157,5.36
-0.0017658470897004,0.631865382194519,0.0715414509177208,5.36
-0.0436537489295005,0.6423373818397522,-0.0192156676203012,5.37
-2.0517873053904623e-05,0.6056854724884033,-0.0314329676330089,5.37
0.0994632467627525,0.5969588160514832,0.0156909171491861,5.38
0.0226687621325254,0.5952134728431702,-1.704443639027886e-05,5.38
0.1430964767932891,0.6458280086517334,0.0122002605348825,5.39
0.1343698352575302,0.6371013522148132,0.047106847167015,5.39
0.0226687621325254,0.6196480989456177,0.1116840243339538,5.4
0.0401220545172691,0.6231387257575989,0.1116840243339538,5.4
-0.0628523677587509,0.6109214425086975,0.1657892316579818,5.41
-0.0139831518754363,0.5987041592597961,0.226875752210617,5.41
-0.1640814691781997,0.591722846031189,0.1989504843950271,5.42
-0.0419084206223487,0.589977502822876,0.2495650351047516,5.42
-0.1012496128678321,0.5987041592597961,0.2600370049476623,5.43
-0.0087471641600131,0.5987041592597961,0.2565463483333587,5.43
-0.1117215901613235,0.5969588160514832,0.2425837218761444,5.44
-0.0419084206223487,0.588232159614563,0.2216397672891616,5.44
0.0191781055182218,0.6039401292800903,0.2146584540605545,5.45
0.0174327753484249,0.6213934421539307,0.1762612015008926,5.45
0.0279047507792711,0.630120038986206,0.1570625901222229,5.46
0.0697926506400108,0.6475733518600464,0.1535719335079193,5.46
-0.1291748881340026,0.6144121289253235,0.1797518581151962,5.47
0.0732833072543144,0.6109214425086975,0.1448452770709991,5.47
0.0279047507792711,0.6737533211708069,0.1588079184293747,5.48
-0.0768150091171264,0.6283747553825378,0.1902238428592682,5.48
-0.1361562013626098,0.5987041592597961,0.1867331862449646,5.49
0.0488486997783184,0.6371013522148132,0.1151746809482574,5.49
0.0052154697477817,0.6563000082969666,0.1064480394124984,5.5
0.0121967867016792,0.6475733518600464,0.1343733072280883,5.5
-0.0645977035164833,0.633610725402832,0.1116840243339538,5.51
0.0017248113872483,0.6126667857170105,0.0959760621190071,5.51
0.0855006128549575,0.6405920386314392,0.0732867792248725,5.52
0.0313954055309295,0.6824799180030823,0.0994667187333107,5.52
0.1378604918718338,0.6423373818397522,0.0959760621190071,5.53
-0.2269133180379867,0.591722846031189,0.0802680999040603,5.53
0.1064445674419403,0.6004494428634644,0.0453615151345729,5.54
-0.0925229713320732,0.6528093218803406,0.0017282847547903,5.54
0.0348860658705234,0.6580453515052795,0.0331442132592201,5.55
-0.1134669184684753,0.6248840689659119,0.0785227715969085,5.55
-0.075069673359394,0.588232159614563,0.017436247318983,5.56
-0.0139831518754363,0.6545546650886536,-1.704443639027886e-05,5.56
0.0174327753484249,0.6528093218803406,0.0767774432897567,5.57
-0.1658267974853515,0.589977502822876,0.109938696026802,5.57
-0.0087471641600131,0.5777601599693298,0.0994667187333107,5.58
0.0471033714711666,0.6563000082969666,0.0575788207352161,5.58
0.062811329960823,0.6772439479827881,0.0820134282112121,5.59
-0.0070018349215388,0.6266294121742249,0.0924854055047035,5.59
-0.0872869789600372,0.6283747553825378,0.1116840243339538,5.6
-0.0070018349215388,0.6213934421539307,0.0732867792248725,5.6
0.0104514574632048,0.6458280086517334,0.0820134282112121,5.61
0.062811329960823,0.6842252612113953,0.0680507943034172,5.61
-0.1117215901613235,0.6388466954231262,0.0924854055047035,5.62
0.0296500790864229,0.6004494428634644,0.0889947414398193,5.62
-0.0157284792512655,0.6475733518600464,0.0505975037813186,5.63
-0.1117215901613235,0.6510640382766724,0.0436161868274211,5.63
-0.0541257262229919,0.5969588160514832,0.0977213904261589,5.64
0.0069607989862561,0.6283747553825378,-0.0017623737221583,5.64
-0.0593617111444473,0.6999332308769226,-0.101246140897274,5.65
0.1081898957490921,0.6894612312316895,-0.0733208730816841,5.65
-0.1501188278198242,0.6405920386314392,-0.0349236279726028,5.66
-0.1658267974853515,0.6126667857170105,-0.0523769222199916,5.66
-0.0558710545301437,0.6126667857170105,-0.0820475220680236,5.67
-0.0366724319756031,0.6545546650886536,-0.0052530323155224,5.67
-0.1396468579769134,0.6371013522148132,0.06106948107481,5.68
-0.0785603374242782,0.584741473197937,0.047106847167015,5.68
0.0837552845478057,0.6021947860717773,0.0209269057959318,5.69
0.054084688425064,0.6283747553825378,0.0994667187333107,5.69
-0.0488897375762462,0.6056854724884033,0.0593241490423679,5.7
0.0401220545172691,0.6126667857170105,0.0837587565183639,5.7
0.116916537284851,0.6004494428634644,0.0436161868274211,5.71
-0.0052565056830644,0.6440827250480652,0.0366348698735237,5.71
-0.0453990772366523,0.633610725402832,0.0558334924280643,5.72
-0.1623361408710479,0.5603069067001343,0.1012120470404625,5.72
-0.0174738094210624,0.5480895638465881,0.1064480394124984,5.73
-0.151864156126976,0.6161574125289917,0.0802680999040603,5.73
0.1378604918718338,0.6126667857170105,0.0959760621190071,5.74
-0.0995042845606803,0.5672882199287415,0.1221560016274452,5.74
-0.0820509940385818,0.5498349070549011,0.1430999487638473,5.75
0.122152529656887,0.5620522499084473,0.1151746809482574,5.75
0.0279047507792711,0.6458280086517334,0.1012120470404625,5.76
0.1500777900218963,0.6510640382766724,0.1588079184293747,5.76
-0.188516080379486,0.5603069067001343,0.2164037823677063,5.77
-0.0104924933984875,0.5376176238059998,0.1622985750436782,5.77
-0.0366724319756031,0.6196480989456177,0.1151746809482574,5.78
-0.0872869789600372,0.631865382194519,0.109938696026802,5.78
-0.1640814691781997,0.5952134728431702,0.0593241490423679,5.79
0.0488486997783184,0.5533255934715271,-0.0192156676203012,5.79
0.0645566657185554,0.5934681296348572,-0.0628488957881927,5.8
0.1326245069503784,0.6266294121742249,-0.0227063242346048,5.8
0.0767739713191986,0.58648681640625,0.031398881226778,5.81
0.0977179184556007,0.5393629670143127,0.0715414509177208,5.81
0.1570591181516647,0.5742695331573486,0.0767774432897567,5.82
0.1570591181516647,0.6266294121742249,0.1221560016274452,5.82
0.1588044464588165,0.6179027557373047,0.1343733072280883,5.83
-0.0279457848519086,0.584741473197937,0.129137322306633,5.83
0.0732833072543144,0.5341269373893738,0.1204106733202934,5.84
-0.050635065883398,0.5725241899490356,0.1430999487638473,5.84
-0.0314364433288574,0.591722846031189,0.1884785145521164,5.85
-0.1082309335470199,0.5742695331573486,0.1867331862449646,5.85
-0.0104924933984875,0.541108250617981,0.1570625901222229,5.86
-0.0366724319756031,0.5760148763656616,0.123901329934597,5.86
0.1204072013497352,0.6056854724884033,0.0994667187333107,5.87
0.0069607989862561,0.5987041592597961,0.1151746809482574,5.87
-0.0488897375762462,0.5568162202835083,0.1012120470404625,5.88
0.0715379789471626,0.5655428767204285,0.0593241490423679,5.88
0.062811329960823,0.6371013522148132,0.0837587565183639,5.89
-0.022709796205163,0.5987041592597961,0.109938696026802,5.89
-0.1152122467756271,0.5655428767204285,0.118665337562561,5.9
-0.0715790167450904,0.5707788467407227,0.0383802019059658,5.9
-0.1256842166185379,0.5829961895942688,0.0436161868274211,5.91
-0.0122378226369619,0.5637975335121155,0.0750321075320243,5.91
-0.050635065883398,0.5795055031776428,0.0505975037813186,5.92
-0.0471444092690944,0.5585615634918213,0.0436161868274211,5.92
-0.094268299639225,0.5219096541404724,0.0820134282112121,5.93
0.12564317882061,0.5219096541404724,0.1448452770709991,5.93
-0.0052565056830644,0.5585615634918213,0.1012120470404625,5.94
0.0366313941776752,0.5742695331573486,0.1029573753476142,5.94
0.0052154697477817,0.5376176238059998,0.1465906053781509,5.95
-0.0925229713320732,0.5166736841201782,0.123901329934597,5.95
0.0855006128549575,0.5620522499084473,0.0959760621190071,5.96
0.0244140923023223,0.5603069067001343,0.1012120470404625,5.96
0.0209234338253736,0.5445989370346069,0.1535719335079193,5.97
-0.1762987673282623,0.5184189677238464,0.0959760621190071,5.97
0.198947012424469,0.5044563412666321,0.0889947414398193,5.98
0.0034701405093073,0.5515802502632141,0.1064480394124984,5.98
-0.0593617111444473,0.5376176238059998,0.0942307338118553,5.99
0.0244140923023223,0.5027109980583191,0.06106948107481,5.99
0.0488486997783184,0.5184189677238464,0.0924854055047035,5.1
-0.0279457848519086,0.509692370891571,0.1465906053781509,6.0
-0.0314364433288574,0.5201643109321594,0.1151746809482574,6.1
0.2478162348270416,0.5725241899490356,0.0488521754741668,6.1
0.0401220545172691,0.589977502822876,-0.0122343488037586,6.2
0.1430964767932891,0.5952134728431702,-0.0261969845741987,6.2
0.0872459411621093,0.5829961895942688,0.0017282847547903,6.3
0.1814937144517898,0.5725241899490356,0.0436161868274211,6.3
0.1413511484861374,0.6196480989456177,0.06106948107481,6.4
0.1029539033770561,0.6109214425086975,0.0558334924280643,6.4
0.062811329960823,0.584741473197937,0.0348895415663719,6.5
-0.0174738094210624,0.5987041592597961,0.0366348698735237,6.5
-0.0192191395908594,0.5987041592597961,0.0348895415663719,6.6
-0.1780440956354141,0.5987041592597961,0.00347361410968,6.6
-0.0192191395908594,0.5987041592597961,0.0261628944426774,6.7
-0.1902614086866378,0.58648681640625,0.0366348698735237,6.7
-0.075069673359394,0.588232159614563,0.0383802019059658,6.8
-0.0820509940385818,0.5795055031776428,0.0017282847547903,6.8
-0.0122378226369619,0.5777601599693298,-0.0017623737221583,6.9
-0.0314364433288574,0.584741473197937,0.0331442132592201,6.9
-0.0139831518754363,0.5498349070549011,0.0593241490423679,6.1
0.0471033714711666,0.5550708770751953,0.0366348698735237,6.1
-0.0174738094210624,0.5707788467407227,0.0645601376891136,6.11
0.068047322332859,0.5463442802429199,0.1204106733202934,6.11
-0.0331817753612995,0.5254002809524536,0.1064480394124984,6.12
0.1238978579640388,0.5620522499084473,0.0837587565183639,6.12
-0.0471444092690944,0.5480895638465881,0.118665337562561,6.13
0.0889912694692611,0.5149283409118652,0.16404390335083,6.13
0.0296500790864229,0.5515802502632141,0.0872494131326675,6.14
-0.0087471641600131,0.5603069067001343,0.0680507943034172,6.14
-0.0052565056830644,0.5236549973487854,0.1308826506137848,6.15
0.062811329960823,0.5288909673690796,0.129137322306633,6.15
-0.0436537489295005,0.5498349070549011,0.0331442132592201,6.16
-0.0872869789600372,0.5376176238059998,0.0715414509177208,6.16
0.0994632467627525,0.5044563412666321,0.1256466507911682,6.17
-0.0611070431768894,0.5201643109321594,0.0645601376891136,6.17
0.0802646279335022,0.5620522499084473,0.031398881226778,6.18
0.062811329960823,0.5079470276832581,0.0889947414398193,6.18
0.0436127111315727,0.5271456241607666,0.1151746809482574,6.19
-0.0471444092690944,0.5027109980583191,0.1361186355352401,6.19
0.0488486997783184,0.4870030879974365,0.1588079184293747,6.2
0.1745124012231826,0.5358722805976868,0.1448452770709991,6.2
-0.0453990772366523,0.5271456241607666,0.1518265902996063,6.21
-0.2775278389453888,0.466059148311615,0.181497186422348,6.21
-0.0052565056830644,0.4311525523662567,0.1570625901222229,6.22
-0.089032307267189,0.5166736841201782,0.0837587565183639,6.22
-0.143137514591217,0.5655428767204285,0.0802680999040603,6.23
0.0401220545172691,0.5114376544952393,0.0593241490423679,6.23
-2.0517873053904623e-05,0.464313805103302,-0.0139796780422329,6.24
0.1448418051004409,0.4887484312057495,-0.0227063242346048,6.24
0.2076736539602279,0.5533255934715271,0.01918157748878,6.25
0.1500777900218963,0.5672882199287415,-0.0174703374505043,6.25
0.116916537284851,0.5201643109321594,0.0366348698735237,6.26
0.12564317882061,0.4957297444343567,0.0366348698735237,6.26
0.1012085750699043,0.5725241899490356,0.0418708585202693,6.27
0.0279047507792711,0.5637975335121155,0.0453615151345729,6.27
-0.2129506915807724,0.4957297444343567,0.0959760621190071,6.28
0.0174327753484249,0.4782764613628387,0.0785227715969085,6.28
-0.0768150091171264,0.5323816537857056,-0.0104890195652842,6.29
0.0924819335341453,0.5620522499084473,0.0104549312964081,6.29
-0.0087471641600131,0.5044563412666321,0.0366348698735237,6.3
-0.1012496128678321,0.4590778350830078,0.0436161868274211,6.3
0.0697926506400108,0.4904937446117401,0.0087096020579338,6.31
-0.0593617111444473,0.5149283409118652,0.06106948107481,6.31
0.2251269519329071,0.5236549973487854,0.1134293526411056,6.32
0.0191781055182218,0.4922390878200531,0.1570625901222229,6.32
-0.1902614086866378,0.4555871784687042,0.0540881641209125,6.33
0.0802646279335022,0.4992204010486603,0.0366348698735237,6.33
-0.0244551263749599,0.4957297444343567,0.0994667187333107,6.34
-0.0611070431768894,0.5079470276832581,0.1500812619924545,6.34
-0.0558710545301437,0.5271456241607666,0.0680507943034172,6.35
-0.1361562013626098,0.4835124313831329,0.0505975037813186,6.35
0.1308791786432266,0.4957297444343567,0.1012120470404625,6.36
-0.0087471641600131,0.4904937446117401,0.0820134282112121,6.36
-0.0436537489295005,0.4939844012260437,0.0488521754741668,6.37
-0.0244551263749599,0.4835124313831329,0.0453615151345729,6.37
0.1099352240562439,0.4416245222091675,0.0680507943034172,6.38
0.0837552845478057,0.5114376544952393,0.0488521754741668,6.38
0.0069607989862561,0.4992204010486603,0.0715414509177208,6.39
-0.0628523677587509,0.4625684916973114,0.0855040848255157,6.39
0.0488486997783184,0.445115178823471,0.0994667187333107,6.4
0.0523393601179122,0.4904937446117401,0.0924854055047035,6.4
-0.0052565056830644,0.542853593826294,0.0540881641209125,6.41
0.0034701405093073,0.5044563412666321,0.0645601376891136,6.41
-0.0087471641600131,0.4381338655948639,0.0802680999040603,6.42
-0.0995042845606803,0.4782764613628387,0.047106847167015,6.42
0.1081898957490921,0.5288909673690796,0.0505975037813186,6.43
0.0121967867016792,0.5219096541404724,0.0750321075320243,6.43
-0.0157284792512655,0.4922390878200531,0.0820134282112121,6.44
-0.0349271036684513,0.4870030879974365,0.0523428358137607,6.44
0.0872459411621093,0.5585615634918213,0.017436247318983,6.45
0.0732833072543144,0.5480895638465881,0.0645601376891136,6.45
-0.050635065883398,0.5114376544952393,0.0750321075320243,6.46
-0.0925229713320732,0.509692370891571,0.0139455897733569,6.46
-0.1274295598268509,0.4957297444343567,0.0244175642728805,6.46
0.0052154697477817,0.5009657144546509,0.0628148019313812,6.47
-0.1256842166185379,0.5288909673690796,0.0017282847547903,6.47
0.0820099562406539,0.5201643109321594,0.0401255302131176,6.48
-0.0611070431768894,0.4730404615402221,0.0837587565183639,6.48
-0.1082309335470199,0.4503511786460876,0.0540881641209125,6.49
-0.0471444092690944,0.4712951183319092,0.029653551056981,6.49
-0.0017658470897004,0.4939844012260437,0.0436161868274211,6.5
0.0523393601179122,0.5236549973487854,0.0802680999040603,6.5
0.0348860658705234,0.5341269373893738,0.0401255302131176,6.51
0.0261594224721193,0.5166736841201782,0.069796122610569,6.51
0.0244140923023223,0.4782764613628387,0.0820134282112121,6.52
0.1780030578374862,0.5184189677238464,0.0645601376891136,6.52
-0.0872869789600372,0.5254002809524536,0.0156909171491861,6.53
-0.1571001559495926,0.4939844012260437,0.1029573753476142,6.53
0.1832390576601028,0.4904937446117401,0.0750321075320243,6.54
-0.2112053632736206,0.5306363105773926,-1.704443639027886e-05,6.54
0.1064445674419403,0.5201643109321594,0.0593241490423679,6.55
-0.0157284792512655,0.4817671179771423,0.1047027111053466,6.55
-0.0558710545301437,0.4765311181545257,0.069796122610569,6.56
0.0034701405093073,0.4992204010486603,0.0244175642728805,6.56
0.0418673828244209,0.4992204010486603,0.0645601376891136,6.57
0.12564317882061,0.5131829977035522,0.0767774432897567,6.57
-0.0872869789600372,0.5027109980583191,0.0750321075320243,6.58
-0.0139831518754363,0.4590778350830078,0.0750321075320243,6.58
0.1064445674419403,0.4835124313831329,0.0523428358137607,6.59
0.1204072013497352,0.5184189677238464,0.0872494131326675,6.59
0.0034701405093073,0.509692370891571,0.0959760621190071,6.6
-0.0052565056830644,0.4817671179771423,0.069796122610569,6.6
-0.0174738094210624,0.4678044617176056,0.0628148019313812,6.61
0.0558300167322158,0.4904937446117401,0.0715414509177208,6.61
0.0575753450393676,0.5358722805976868,0.1256466507911682,6.62
0.0488486997783184,0.5114376544952393,0.0680507943034172,6.62
-0.0837963223457336,0.5044563412666321,0.0122002605348825,6.63
0.0593206733465194,0.4695498049259186,0.0802680999040603,6.63
0.0645566657185554,0.5219096541404724,0.0767774432897567,6.64
-0.08030566573143,0.5254002809524536,0.0436161868274211,6.64
0.12564317882061,0.4939844012260437,0.0820134282112121,6.65
-0.0733243450522422,0.5027109980583191,0.0645601376891136,6.65
-0.1012496128678321,0.4904937446117401,0.1081933677196502,6.66
-0.075069673359394,0.4887484312057495,0.1256466507911682,6.66
-0.1221935674548149,0.4852577745914459,0.118665337562561,6.67
0.1046992391347885,0.541108250617981,0.017436247318983,6.67
-0.1850254237651825,0.5341269373893738,-0.0192156676203012,6.68
0.0348860658705234,0.5044563412666321,-0.0244516544044017,6.68
-2.0517873053904623e-05,0.4765311181545257,-0.0436502732336521,6.69
0.0087061282247304,0.5044563412666321,-0.0506315901875495,6.69
0.1291338503360748,0.5358722805976868,-0.0401596166193485,6.7
0.2059283256530761,0.541108250617981,0.00347361410968,6.7
0.0750286355614662,0.5044563412666321,0.0366348698735237,6.71
-0.1797894239425659,0.466059148311615,0.0383802019059658,6.71
0.1308791786432266,0.466059148311615,0.0453615151345729,6.72
-0.1047402769327163,0.5166736841201782,0.0505975037813186,6.72
0.0348860658705234,0.5288909673690796,0.0924854055047035,6.73
-0.0733243450522422,0.4939844012260437,0.109938696026802,6.73
-0.0785603374242782,0.445115178823471,0.0732867792248725,6.74
0.0610660053789615,0.4992204010486603,0.0767774432897567,6.74
0.0610660053789615,0.4730404615402221,0.1273919939994812,6.75
0.1710217446088791,0.4887484312057495,0.1151746809482574,6.75
-0.0558710545301437,0.4904937446117401,0.0680507943034172,6.76
0.1326245069503784,0.4992204010486603,0.06106948107481,6.76
0.0244140923023223,0.509692370891571,0.0872494131326675,6.77
0.0593206733465194,0.4852577745914459,0.1361186355352401,6.77
-0.1274295598268509,0.4922390878200531,0.0872494131326675,6.78
-0.1187029033899307,0.4957297444343567,0.0872494131326675,6.78
0.0104514574632048,0.4747857749462127,0.1134293526411056,6.79
-0.1815347522497177,0.4870030879974365,0.1029573753476142,6.79
0.1605497747659683,0.5201643109321594,0.0558334924280643,6.8
-0.0523803979158401,0.4957297444343567,0.029653551056981,6.8
-0.1029949411749839,0.4765311181545257,0.0802680999040603,6.81
-0.0820509940385818,0.4416245222091675,0.1151746809482574,6.81
0.1151712089776992,0.4992204010486603,0.0523428358137607,6.82
0.1046992391347885,0.5829961895942688,0.0488521754741668,6.82
0.1012085750699043,0.542853593826294,0.1064480394124984,6.83
-0.1187029033899307,0.4922390878200531,0.1064480394124984,6.83
0.0017248113872483,0.4625684916973114,0.0680507943034172,6.84
0.0855006128549575,0.5288909673690796,0.0383802019059658,6.84
-0.075069673359394,0.5690335631370544,0.0820134282112121,6.85
-0.1448828428983688,0.5062016844749451,0.0959760621190071,6.85
-0.1169575750827789,0.446860522031784,0.0593241490423679,6.86
-0.0104924933984875,0.4782764613628387,-0.0174703374505043,6.86
-0.0174738094210624,0.5201643109321594,0.029653551056981,6.87
0.0505940280854702,0.4939844012260437,0.0750321075320243,6.87
-0.2653105556964874,0.4328978955745697,0.0820134282112121,6.88
0.2216362953186035,0.4346432089805603,0.0505975037813186,6.88
-0.1064856052398681,0.5184189677238464,0.0104549312964081,6.89
0.136115163564682,0.5550708770751953,0.0593241490423679,6.89
0.1884750425815582,0.4992204010486603,0.129137322306633,6.9
-0.3682849705219269,0.4224259257316589,0.1430999487638473,6.9
0.2547975778579712,0.4573324918746948,0.0889947414398193,6.91
-0.1309202164411544,0.5533255934715271,0.0959760621190071,6.91
0.2059283256530761,0.5393629670143127,0.1483359336853027,6.92
-0.0925229713320732,0.5184189677238464,0.1500812619924545,6.92
-0.2618198990821838,0.4171899259090423,0.0994667187333107,6.93
0.2635242044925689,0.5149283409118652,0.0575788207352161,6.93
-0.2077146917581558,0.5254002809524536,0.0453615151345729,6.94
0.1116805523633956,0.5009657144546509,0.0994667187333107,6.94
0.0121967867016792,0.4852577745914459,0.0418708585202693,6.95
-0.094268299639225,0.4782764613628387,0.0575788207352161,6.95
0.0924819335341453,0.4974750578403473,0.069796122610569,6.96
-0.0628523677587509,0.4870030879974365,0.0453615151345729,6.96
0.1640404313802719,0.5184189677238464,0.031398881226778,6.97
-0.1571001559495926,0.4939844012260437,0.0575788207352161,6.97
0.0348860658705234,0.4887484312057495,0.0924854055047035,6.98
0.1326245069503784,0.4922390878200531,0.029653551056981,6.98
-0.0384177640080452,0.5393629670143127,0.031398881226778,6.99
0.0279047507792711,0.4992204010486603,0.0907400697469711,6.99
-0.0645977035164833,0.4817671179771423,0.0924854055047035,6.1
0.0872459411621093,0.4922390878200531,0.069796122610569,7.0
-0.0855416506528854,0.5219096541404724,0.0750321075320243,7.1
0.0575753450393676,0.4992204010486603,0.1396092921495437,7.1
-0.0192191395908594,0.4835124313831329,0.0872494131326675,7.2
0.0017248113872483,0.5079470276832581,0.0069642723537981,7.2
0.1605497747659683,0.5288909673690796,0.0680507943034172,7.3
-2.0517873053904623e-05,0.5044563412666321,0.0767774432897567,7.3
0.122152529656887,0.5288909673690796,0.0348895415663719,7.4
-0.0837963223457336,0.5079470276832581,-0.0017623737221583,7.4
0.116916537284851,0.5306363105773926,0.0348895415663719,7.5
-0.0366724319756031,0.5236549973487854,0.0453615151345729,7.5
-0.0244551263749599,0.5306363105773926,0.017436247318983,7.6
-0.0401630923151969,0.5620522499084473,-0.0139796780422329,7.6
-0.0768150091171264,0.5812508463859558,-0.0139796780422329,7.7
0.1762577295303344,0.6056854724884033,0.0122002605348825,7.7
-0.0907776355743408,0.5829961895942688,0.0331442132592201,7.8
-0.08030566573143,0.5515802502632141,0.0593241490423679,7.8
-0.0384177640080452,0.5585615634918213,0.0767774432897567,7.9
0.0418673828244209,0.5341269373893738,0.109938696026802,7.9
-0.0244551263749599,0.541108250617981,0.1204106733202934,7.1
-0.3263970613479614,0.4887484312057495,0.1361186355352401,7.1
-0.205969363451004,0.4398792088031769,0.1256466507911682,7.11
-0.2496026009321212,0.4346432089805603,0.1343733072280883,7.11
-0.2251679897308349,0.4189352691173553,0.1518265902996063,7.12
-0.1797894239425659,0.3543580770492553,0.183242529630661,7.12
-0.1920067369937896,0.293271541595459,0.2129131257534027,7.13
-0.2338946312665939,0.2653462886810303,0.1692798882722854,7.13
0.0174327753484249,0.2548743188381195,0.1343733072280883,7.14
0.1692764163017273,0.1902971267700195,0.123901329934597,7.14
-0.075069673359394,0.1518998742103576,0.0959760621190071,7.15
0.1570591181516647,0.1344465911388397,0.0401255302131176,7.15
0.0558300167322158,0.0593974292278289,0.0628148019313812,7.16
0.0785192996263504,0.0401988103985786,0.0924854055047035,7.16
0.062811329960823,0.0559067726135253,0.017436247318983,7.17
-0.0925229713320732,0.0332174934446811,0.0209269057959318,7.17
-0.0488897375762462,-0.0191423874348402,0.0122002605348825,7.18
-0.0017658470897004,-0.0051797516644001,-0.0244516544044017,7.18
-0.1152122467756271,0.0157641973346471,-0.1309167444705963,7.19
-0.1221935674548149,0.0070375530049204,-0.0942648276686668,7.19
-0.0698336884379386,-0.0208877157419919,-0.0244516544044017,7.2
-0.075069673359394,0.001801565173082,-0.0122343488037586,7.2
-0.0419084206223487,0.0157641973346471,-0.0488862618803978,7.21
0.0034701405093073,0.0279815029352903,-0.0052530323155224,7.21
0.0436127111315727,0.0105282114818692,-0.0157250072807073,7.22
0.0366313941776752,0.0262361746281385,-0.0296876411885023,7.22
-0.0209644678980112,0.0244908444583416,-0.0244516544044017,7.23
0.0069607989862561,0.0175095275044441,0.00347361410968,7.23
0.116916537284851,-0.0034344226587563,0.0261628944426774,7.24
0.068047322332859,0.0052922237664461,0.01918157748878,7.24
-0.0052565056830644,0.0262361746281385,0.0436161868274211,7.25
-0.0837963223457336,0.0262361746281385,0.0767774432897567,7.25
-0.0576163828372955,5.6235880038002506e-05,0.0383802019059658,7.26
0.0453580394387245,-0.0086704101413488,-0.0087436903268098,7.26
-0.1082309335470199,0.0105282114818692,-0.0157250072807073,7.27
-0.0715790167450904,0.0367081500589847,0.0261628944426774,7.27
-0.08030566573143,0.0070375530049204,0.031398881226778,7.28
0.198947012424469,-0.0645209476351738,0.0261628944426774,7.28
0.3438093662261963,-0.0243783742189407,-0.0069983615539968,7.29
0.2862134873867035,0.0943040177226066,-0.0139796780422329,7.29
0.2966854572296142,0.0401988103985786,0.0244175642728805,7.3
0.2321082651615142,-0.0400863364338874,0.069796122610569,7.3
-0.1326655447483062,-0.0924462154507637,0.01918157748878,7.31
-0.3194157481193542,-0.0121610686182975,0.0680507943034172,7.31
-0.1309202164411544,-0.0680116042494773,0.00347361410968,7.32
-0.1256842166185379,-0.0243783742189407,-0.0314329676330089,7.32
0.1012085750699043,0.0244908444583416,-0.0611035674810409,7.33
-0.2914904952049255,0.0838320404291153,-0.0803021937608718,7.33
0.2530522346496582,-0.0296143610030412,-0.0261969845741987,7.34
0.198947012424469,-0.0645209476351738,0.0540881641209125,7.34
0.179748386144638,-0.0383410081267356,0.0087096020579338,7.35
0.1012085750699043,0.0105282114818692,0.06106948107481,7.35
0.0331407375633716,-0.0051797516644001,0.118665337562561,7.36
0.0348860658705234,-0.0173970572650432,-0.033178299665451,7.36
-0.0960136279463768,5.6235880038002506e-05,-1.704443639027886e-05,7.37
-0.3455956876277923,0.031472161412239,-0.0680848881602287,7.37
-0.1954973936080932,-0.0104157393798232,-0.047140933573246,7.38
-0.1413921862840652,-0.0592849552631378,-0.0052530323155224,7.38
-0.0872869789600372,-0.057539626955986,-0.0436502732336521,7.39
0.1396058201789856,0.0052922237664461,-0.0314329676330089,7.39
0.1762577295303344,0.0279815029352903,-0.0157250072807073,7.4
0.29144948720932,5.6235880038002506e-05,-0.0139796780422329,7.4
0.308902770280838,-0.0296143610030412,0.047106847167015,7.41
0.1780030578374862,-0.0208877157419919,0.0261628944426774,7.41
0.1832390576601028,-0.0051797516644001,0.06106948107481,7.42
0.0488486997783184,-0.0156517270952463,0.0383802019059658,7.42
-0.0995042845606803,-0.0208877157419919,0.0279082227498292,7.43
-0.1256842166185379,5.6235880038002506e-05,-0.0174703374505043,7.43
-0.3717756271362304,0.0087828822433948,-0.0296876411885023,7.44
-0.1413921862840652,-0.0296143610030412,0.0575788207352161,7.44
-0.1396468579769134,-0.0296143610030412,-0.0488862618803978,7.45
0.0767739713191986,0.0035468942951411,-0.0174703374505043,7.45
-0.0837963223457336,0.0576521009206771,-0.0715755447745323,7.46
0.068047322332859,-0.0086704101413488,0.031398881226778,7.46
0.0523393601179122,-0.043576993048191,0.0837587565183639,7.47
0.0610660053789615,-0.0365956760942935,0.0052189431153237,7.47
0.1692764163017273,0.0175095275044441,-0.0104890195652842,7.48
-0.0139831518754363,0.0297268312424421,-1.704443639027886e-05,7.48
-0.0645977035164833,5.6235880038002506e-05,0.0348895415663719,7.49
-0.0244551263749599,-0.0557942986488342,0.0209269057959318,7.49
-0.0139831518754363,-0.0051797516644001,-0.0453956015408039,7.5
0.1413511484861374,0.0593974292278289,-0.0314329676330089,7.5
0.0017248113872483,0.0419441387057304,0.0017282847547903,7.51
0.1308791786432266,-0.0069250809028744,0.0331442132592201,7.51
0.0174327753484249,5.6235880038002506e-05,-0.0017623737221583,7.52
0.0209234338253736,0.0297268312424421,0.0052189431153237,7.52
0.1308791786432266,0.0297268312424421,0.0540881641209125,7.53
-0.0174738094210624,0.0140188699588179,0.0453615151345729,7.53
-0.0558710545301437,0.001801565173082,0.00347361410968,7.54
-0.2321493029594421,0.001801565173082,-0.0401596166193485,7.54
-0.4730047285556793,0.0087828822433948,0.047106847167015,7.55
-0.2356399595737457,-0.0802289098501205,0.0750321075320243,7.55
-0.0384177640080452,-0.0872102230787277,-0.0384142883121967,7.56
0.1972016841173172,-0.0051797516644001,-0.0803021937608718,7.56
-0.0995042845606803,0.1449185609817505,-0.0750662013888359,7.57
0.3228653967380523,0.0122735407203435,0.0156909171491861,7.57
0.2164003103971481,-0.0662662759423255,0.1308826506137848,7.58
0.0942272618412971,-0.0139063978567719,0.01918157748878,7.58
0.0139421159401535,0.0105282114818692,0.0366348698735237,7.59
0.0697926506400108,0.0052922237664461,0.0750321075320243,7.59
0.0750286355614662,0.0087828822433948,-0.0244516544044017,7.6
-0.1623361408710479,0.0297268312424421,-0.0174703374505043,7.6
-0.2094600349664688,-0.0208877157419919,-0.0035077028442174,7.61
-0.0366724319756031,-0.03310501947999,0.031398881226778,7.61
-0.0558710545301437,0.0052922237664461,0.0156909171491861,7.62
-0.1117215901613235,0.0052922237664461,0.0156909171491861,7.62
0.0959725901484489,-0.0104157393798232,0.0052189431153237,7.63
0.1029539033770561,-0.0173970572650432,-0.0419049449265003,7.63
-0.0052565056830644,0.0157641973346471,-0.047140933573246,7.64
0.0994632467627525,-0.0051797516644001,0.0052189431153237,7.64
-0.0122378226369619,-0.03310501947999,0.0505975037813186,7.65
0.062811329960823,-0.0243783742189407,0.031398881226778,7.65
0.0174327753484249,0.0070375530049204,-0.0104890195652842,7.66
0.0313954055309295,5.6235880038002506e-05,-0.0035077028442174,7.66
-0.0157284792512655,-0.0173970572650432,-0.0419049449265003,7.67
-0.0680883601307869,-0.0243783742189407,-0.0645942315459251,7.67
-0.0052565056830644,-0.0278690326958894,-0.0715755447745323,7.68
0.0331407375633716,-0.0051797516644001,-0.0349236279726028,7.68
0.0645566657185554,0.0052922237664461,-0.0069983615539968,7.69
0.0104514574632048,-0.0139063978567719,-1.704443639027886e-05,7.69
0.0174327753484249,-0.0208877157419919,0.00347361410968,7.7
0.0313954055309295,-0.0121610686182975,0.01918157748878,7.7
0.0994632467627525,-0.0086704101413488,0.029653551056981,7.71
0.0174327753484249,-0.0069250809028744,0.0052189431153237,7.71
-0.0157284792512655,-0.0208877157419919,-0.0104890195652842,7.72
0.0052154697477817,-0.0226330440491437,-0.0069983615539968,7.72
0.0226687621325254,-0.0104157393798232,0.0122002605348825,7.73
-0.0384177640080452,-0.0156517270952463,0.029653551056981,7.73
0.0034701405093073,-0.0226330440491437,0.047106847167015,7.74
0.0052154697477817,-0.0365956760942935,0.0505975037813186,7.74
0.0610660053789615,-0.0156517270952463,0.0453615151345729,7.75
0.0069607989862561,0.0070375530049204,0.0087096020579338,7.75
0.0279047507792711,-0.0069250809028744,-0.0017623737221583,7.76
0.0174327753484249,-0.0243783742189407,-0.0069983615539968,7.76
-0.0453990772366523,-0.0173970572650432,0.0052189431153237,7.77
0.0156874451786279,-0.0121610686182975,0.031398881226778,7.77
-0.0453990772366523,-0.0261237043887376,0.0575788207352161,7.78
0.0174327753484249,-0.0296143610030412,0.0453615151345729,7.78
-0.0174738094210624,-0.0104157393798232,0.0139455897733569,7.79
0.0401220545172691,0.001801565173082,-0.0017623737221583,7.79
0.0610660053789615,-0.0069250809028744,0.0017282847547903,7.8
-0.0157284792512655,-0.03310501947999,0.0226722341030836,7.8
0.0052154697477817,-0.0261237043887376,0.0488521754741668,7.81
0.0052154697477817,-0.0208877157419919,0.0715414509177208,7.81
0.0505940280854702,-0.0191423874348402,0.0645601376891136,7.82
-0.0558710545301437,-0.0156517270952463,0.0139455897733569,7.82
-0.0279457848519086,-0.0121610686182975,-0.0174703374505043,7.83
-0.0087471641600131,-0.0191423874348402,-0.020960995927453,7.83
-0.0645977035164833,-0.0261237043887376,-0.0139796780422329,7.84
-0.0401630923151969,-0.0243783742189407,0.01918157748878,7.84
-0.0174738094210624,-0.0173970572650432,0.0348895415663719,7.85
0.0209234338253736,-0.0173970572650432,0.0261628944426774,7.85
-0.0122378226369619,-0.0086704101413488,-0.0227063242346048,7.86
0.0226687621325254,-0.0016890933038666,-0.033178299665451,7.86
0.0069607989862561,-0.0226330440491437,-0.0314329676330089,7.87
-0.00351117644459,-0.0261237043887376,0.00347361410968,7.87
0.0087061282247304,-0.0156517270952463,0.017436247318983,7.88
0.0174327753484249,-0.0034344226587563,0.01918157748878,7.88
-0.0087471641600131,-0.0086704101413488,-0.0104890195652842,7.89
-0.0453990772366523,-0.0156517270952463,-0.0192156676203012,7.89
0.0052154697477817,-0.0226330440491437,-0.0174703374505043,7.9
-0.0279457848519086,-0.0226330440491437,0.0122002605348825,7.9
-0.0174738094210624,-0.0261237043887376,0.029653551056981,7.91
0.0052154697477817,-0.0208877157419919,0.031398881226778,7.91
-0.0122378226369619,-0.0121610686182975,-1.704443639027886e-05,7.92
0.0017248113872483,5.6235880038002506e-05,-0.0244516544044017,7.92
0.0191781055182218,-0.0139063978567719,-0.0017623737221583,7.93
0.0069607989862561,-0.0296143610030412,0.0139455897733569,7.93
0.0174327753484249,-0.0139063978567719,0.0156909171491861,7.94
0.0366313941776752,-0.0034344226587563,0.0209269057959318,7.94
0.0279047507792711,0.0035468942951411,-0.0017623737221583,7.95
-0.0314364433288574,-0.0086704101413488,-0.0244516544044017,7.95
0.0121967867016792,-0.0313596874475479,-0.0035077028442174,7.96
0.0104514574632048,-0.0226330440491437,0.0122002605348825,7.96
-2.0517873053904623e-05,-0.0139063978567719,0.0069642723537981,7.97
0.0279047507792711,-0.0069250809028744,0.0069642723537981,7.97
0.0226687621325254,-0.0086704101413488,-0.0157250072807073,7.98
-0.0174738094210624,-0.0034344226587563,-0.020960995927453,7.98
0.0121967867016792,-0.0208877157419919,-0.0104890195652842,7.99
0.0121967867016792,-0.03310501947999,0.0139455897733569,7.99
0.0156874451786279,-0.0156517270952463,0.017436247318983,7.1
0.0261594224721193,5.6235880038002506e-05,0.0052189431153237,8.0
0.0436127111315727,-0.0069250809028744,-0.0139796780422329,8.1
-0.0017658470897004,-0.0139063978567719,-0.0296876411885023,8.1
0.0191781055182218,-0.0243783742189407,-0.0069983615539968,8.2
0.0139421159401535,-0.0296143610030412,0.00347361410968,8.2
-2.0517873053904623e-05,-0.0156517270952463,0.0156909171491861,8.3
0.0191781055182218,-0.0016890933038666,0.00347361410968,8.3
0.0104514574632048,-0.0191423874348402,-0.0192156676203012,8.4
0.0034701405093073,-0.0051797516644001,-0.0419049449265003,8.4
0.0017248113872483,-0.0208877157419919,-0.0314329676330089,8.5
-0.0017658470897004,-0.0296143610030412,-1.704443639027886e-05,8.5
0.0017248113872483,-0.0191423874348402,0.0122002605348825,8.6
0.0174327753484249,5.6235880038002506e-05,0.0052189431153237,8.6
0.0191781055182218,-0.0034344226587563,-0.020960995927453,8.7
-0.0174738094210624,-0.0069250809028744,-0.0401596166193485,8.7
-0.0017658470897004,-0.0208877157419919,-0.0192156676203012,8.8
-0.0279457848519086,-0.0296143610030412,0.0052189431153237,8.8
-0.0122378226369619,-0.0156517270952463,0.0052189431153237,8.9
-0.0139831518754363,-0.0034344226587563,-1.704443639027886e-05,8.9
0.0104514574632048,-0.0156517270952463,-0.020960995927453,8.1
-0.0070018349215388,-0.0121610686182975,-0.0453956015408039,8.1
0.0052154697477817,-0.0173970572650432,-0.0384142883121967,8.11
-0.0174738094210624,-0.03310501947999,0.0017282847547903,8.11
0.0087061282247304,-0.0313596874475479,0.0156909171491861,8.12
0.0139421159401535,-0.0156517270952463,0.0139455897733569,8.12
0.0488486997783184,-0.0016890933038666,-0.0035077028442174,8.13
0.0052154697477817,-0.0051797516644001,-0.0261969845741987,8.13
0.0313954055309295,-0.0121610686182975,-0.0244516544044017,8.14
0.0104514574632048,-0.0313596874475479,0.01918157748878,8.14
-0.0052565056830644,-0.0278690326958894,0.0348895415663719,8.15
0.0156874451786279,-0.0156517270952463,0.0453615151345729,8.15
0.0121967867016792,-0.0121610686182975,0.0279082227498292,8.16
-0.0209644678980112,-0.0278690326958894,-1.704443639027886e-05,8.16
0.0366313941776752,-0.0313596874475479,-0.0227063242346048,8.17
-0.0296911131590604,-0.0365956760942935,0.0052189431153237,8.17
0.0191781055182218,-0.0470676533877849,0.0331442132592201,8.18
0.0279047507792711,-0.0313596874475479,0.0279082227498292,8.18
0.0575753450393676,-0.0173970572650432,0.0279082227498292,8.19
0.0348860658705234,-0.0069250809028744,-0.0104890195652842,8.19
0.0226687621325254,-0.0121610686182975,-0.0453956015408039,8.2
0.0174327753484249,-0.0243783742189407,-0.0366689562797546,8.2
-0.0192191395908594,-0.0226330440491437,-0.0035077028442174,8.21
-2.0517873053904623e-05,-0.0313596874475479,0.0331442132592201,8.21
0.0174327753484249,-0.0208877157419919,0.0383802019059658,8.22
0.0279047507792711,-0.0226330440491437,0.0366348698735237,8.22
0.0296500790864229,-0.0226330440491437,-0.0157250072807073,8.23
0.0872459411621093,-0.0278690326958894,-0.0366689562797546,8.23
0.0558300167322158,-0.0261237043887376,-0.0419049449265003,8.24
-0.0052565056830644,-0.0296143610030412,-0.0227063242346048,8.24
0.0069607989862561,-0.0226330440491437,0.0104549312964081,8.25
-0.0122378226369619,-0.0261237043887376,0.0488521754741668,8.25
0.0296500790864229,-0.0069250809028744,0.0383802019059658,8.26
-0.0436537489295005,0.0140188699588179,-0.0157250072807073,8.26
0.0104514574632048,0.0052922237664461,-0.0401596166193485,8.27
0.0174327753484249,-0.0086704101413488,-0.0349236279726028,8.27
-0.0104924933984875,-0.0016890933038666,-0.0227063242346048,8.28
-0.0139831518754363,-0.0104157393798232,-1.704443639027886e-05,8.28
0.0313954055309295,-0.0226330440491437,0.0244175642728805,8.29
0.0174327753484249,-0.0296143610030412,0.031398881226778,8.29
-0.00351117644459,-0.0121610686182975,0.0087096020579338,8.3
-0.0017658470897004,-0.0104157393798232,-0.0035077028442174,8.3
0.0279047507792711,-0.0173970572650432,-0.0104890195652842,8.31
0.0244140923023223,-0.0121610686182975,-0.0192156676203012,8.31
-0.0262004565447568,0.0052922237664461,-0.0104890195652842,8.32
-0.0314364433288574,-0.0051797516644001,0.0069642723537981,8.32
-0.0052565056830644,-0.0261237043887376,0.017436247318983,8.33
-0.0209644678980112,-0.0121610686182975,0.0139455897733569,8.33
-0.0401630923151969,0.001801565173082,0.00347361410968,8.34
0.0156874451786279,-0.0051797516644001,-0.0035077028442174,8.34
-0.0087471641600131,-0.0243783742189407,-0.0192156676203012,8.35
-0.0139831518754363,-0.0086704101413488,-0.047140933573246,8.35
-0.0104924933984875,0.0035468942951411,-0.0401596166193485,8.36
-0.0052565056830644,-0.0086704101413488,-0.0052530323155224,8.36
-0.0366724319756031,-0.0313596874475479,0.0104549312964081,8.37
-0.0244551263749599,-0.0261237043887376,0.0226722341030836,8.37
-2.0517873053904623e-05,-0.0069250809028744,0.029653551056981,8.38
0.0505940280854702,0.0052922237664461,0.0139455897733569,8.38
0.0331407375633716,-0.0104157393798232,0.0104549312964081,8.39
0.0052154697477817,-0.0121610686182975,-1.704443639027886e-05,8.39
0.0209234338253736,0.0052922237664461,-1.704443639027886e-05,8.4
-0.0314364433288574,0.0122735407203435,0.0122002605348825,8.4
0.0121967867016792,-0.0069250809028744,0.0069642723537981,8.41
-0.0453990772366523,-0.0191423874348402,0.029653551056981,8.41
0.0226687621325254,-0.0139063978567719,0.017436247318983,8.42
-0.0296911131590604,-0.0086704101413488,0.0244175642728805,8.42
0.0436127111315727,-0.0051797516644001,0.0104549312964081,8.43
-0.0087471641600131,-0.0226330440491437,0.031398881226778,8.43
0.054084688425064,-0.0051797516644001,0.0156909171491861,8.44
-0.00351117644459,-0.0051797516644001,0.0226722341030836,8.44
0.0174327753484249,-0.0069250809028744,0.01918157748878,8.45
-0.050635065883398,-0.0208877157419919,0.0104549312964081,8.45
0.0121967867016792,0.0035468942951411,-0.0052530323155224,8.46
-0.1029949411749839,0.0052922237664461,-0.0017623737221583,8.46
0.0453580394387245,-0.0034344226587563,-1.704443639027886e-05,8.47
-0.0715790167450904,-0.0191423874348402,-0.0069983615539968,8.47
0.0645566657185554,-0.0104157393798232,0.0087096020579338,8.48
-0.0558710545301437,-0.0104157393798232,0.0069642723537981,8.48
0.0383767262101173,-0.0191423874348402,0.0261628944426774,8.49
0.0156874451786279,-0.0156517270952463,0.0209269057959318,8.49
-0.0471444092690944,5.6235880038002506e-05,0.0069642723537981,8.5
0.0383767262101173,0.0087828822433948,0.017436247318983,8.5
0.0209234338253736,-0.0156517270952463,0.0139455897733569,8.51
-0.0174738094210624,-0.0139063978567719,0.0244175642728805,8.51
0.0034701405093073,0.0052922237664461,0.0104549312964081,8.52
-0.050635065883398,-0.0051797516644001,0.0244175642728805,8.52
0.0087061282247304,-0.0208877157419919,0.0331442132592201,8.53
-0.0436537489295005,5.6235880038002506e-05,-0.0069983615539968,8.53
0.0279047507792711,-0.0139063978567719,-0.0087436903268098,8.54
-0.0209644678980112,-0.0139063978567719,0.0017282847547903,8.54
0.0226687621325254,-0.0034344226587563,-0.0244516544044017,8.55
-0.0139831518754363,-0.0226330440491437,-0.0122343488037586,8.55
0.0261594224721193,-0.0173970572650432,0.0104549312964081,8.56
0.0087061282247304,0.0070375530049204,-0.0087436903268098,8.56
-0.0192191395908594,-0.0173970572650432,-0.0052530323155224,8.57
0.0855006128549575,-0.0313596874475479,-1.704443639027886e-05,8.57
0.0087061282247304,5.6235880038002506e-05,-0.0174703374505043,8.58
-0.0331817753612995,0.0157641973346471,-0.0174703374505043,8.58
0.0052154697477817,-0.0086704101413488,-0.0104890195652842,8.59
-0.0837963223457336,-0.0139063978567719,-0.0017623737221583,8.59
-0.0157284792512655,0.0122735407203435,0.0156909171491861,8.6
-0.1012496128678321,0.0175095275044441,0.01918157748878,8.6
-0.0017658470897004,-0.0173970572650432,0.0244175642728805,8.61
0.0087061282247304,-0.0173970572650432,-0.0104890195652842,8.61
-0.0558710545301437,-0.0016890933038666,-0.0122343488037586,8.62
0.1134258806705474,0.0087828822433948,0.0017282847547903,8.62
0.0191781055182218,-0.0051797516644001,0.0087096020579338,8.63
-0.0122378226369619,-0.0243783742189407,-1.704443639027886e-05,8.63
-0.0331817753612995,-0.0139063978567719,0.0017282847547903,8.64
0.0750286355614662,0.0035468942951411,0.0069642723537981,8.64
-0.0663430318236351,0.0087828822433948,-0.0192156676203012,8.65
-0.1832800954580307,0.001801565173082,-0.092519499361515,8.65
-0.3874835968017578,0.0175095275044441,-0.0593582354485988,8.66
-0.0715790167450904,-0.0557942986488342,-0.0244516544044017,8.66
-0.1204482391476631,-0.0453223213553428,-0.087283506989479,8.67
-0.094268299639225,0.0524161159992218,-0.10648213326931,8.67
-0.2722918689250946,0.0698694065213203,-0.0523769222199916,8.68
0.1430964767932891,-0.0697569325566291,0.0453615151345729,8.68
0.2827228307723999,-0.0872102230787277,0.0732867792248725,8.69
0.3455546796321869,0.0559067726135253,-0.0645942315459251,8.69
0.2984308004379272,0.0785960555076599,0.0261628944426774,8.7
0.2984308004379272,-0.0208877157419919,0.1116840243339538,8.7
0.0977179184556007,-0.1133901625871658,0.0505975037813186,8.71
-0.4677687287330627,0.0559067726135253,-0.1937485933303833,8.71
-0.1640814691781997,-0.0557942986488342,0.118665337562561,8.72
-0.5899417996406555,-0.0837195664644241,0.0436161868274211,8.72
0.6178260445594788,-0.0819742381572723,0.0663054659962654,8.73
-0.4485701322555542,0.1501545459032058,-0.1256807446479797,8.73
-0.0017658470897004,0.0244908444583416,-0.1239354237914085,8.74
0.4240944981575012,-0.0837195664644241,0.0750321075320243,8.74
0.0732833072543144,-0.1273528039455413,0.0872494131326675,8.75
-0.0366724319756031,0.0035468942951411,-0.0314329676330089,8.75
-0.0244551263749599,0.0681240782141685,0.0558334924280643,8.76
-0.0960136279463768,-0.0802289098501205,0.0977213904261589,8.76
0.3193747401237488,-0.057539626955986,0.0645601376891136,8.77
-0.0087471641600131,0.0576521009206771,-0.0645942315459251,8.77
-0.2216773331165313,0.0681240782141685,-0.0977554842829704,8.78
0.1780030578374862,-0.0191423874348402,0.0087096020579338,8.78
-0.3438503742218017,-0.0837195664644241,0.0436161868274211,8.79
-0.1588454842567443,-0.0627756118774414,0.0069642723537981,8.79
0.0802646279335022,-0.0488129816949367,0.0244175642728805,8.8
-0.00351117644459,0.0384534820914268,0.0383802019059658,8.8
-0.0122378226369619,0.061142761260271,0.0052189431153237,8.81
-0.08030566573143,-0.0645209476351738,0.0558334924280643,8.81
-0.0070018349215388,-0.1256074607372284,0.0558334924280643,8.82
0.1553137898445129,-0.0191423874348402,-0.0192156676203012,8.82
0.1553137898445129,0.0663787499070167,0.0017282847547903,8.83
0.1413511484861374,0.0070375530049204,0.0488521754741668,8.83
-0.0017658470897004,-0.0749929174780845,0.0645601376891136,8.84
0.0209234338253736,-0.0662662759423255,-0.0122343488037586,8.84
-0.0925229713320732,5.6235880038002506e-05,0.0017282847547903,8.85
0.0610660053789615,0.001801565173082,0.0680507943034172,8.85
-0.0139831518754363,-0.0173970572650432,-0.0052530323155224,8.86
-0.0977589562535286,-0.0226330440491437,-0.0436502732336521,8.86
-0.1221935674548149,-0.0365956760942935,0.0156909171491861,8.87
-0.0593617111444473,-0.057539626955986,0.06106948107481,8.87
0.0087061282247304,-0.0313596874475479,0.0279082227498292,8.88
-0.0052565056830644,5.6235880038002506e-05,-0.0314329676330089,8.88
0.0331407375633716,5.6235880038002506e-05,-0.0227063242346048,8.89
0.0471033714711666,-0.0313596874475479,0.0104549312964081,8.89
0.0924819335341453,-0.03310501947999,0.0087096020579338,8.9
-0.0209644678980112,-0.0104157393798232,-0.0192156676203012,8.9
-0.0174738094210624,5.6235880038002506e-05,0.0156909171491861,8.91
-0.0122378226369619,-0.0226330440491437,-1.704443639027886e-05,8.91
-0.0157284792512655,-0.0278690326958894,-0.0366689562797546,8.92
-0.0314364433288574,-0.0016890933038666,-0.0314329676330089,8.92
-0.1187029033899307,-0.0139063978567719,0.0104549312964081,8.93
-0.0331817753612995,-0.043576993048191,0.0593241490423679,8.93
-0.0401630923151969,-0.0505583100020885,0.0226722341030836,8.94
0.0296500790864229,5.6235880038002506e-05,-0.033178299665451,8.94
0.1308791786432266,0.0175095275044441,-1.704443639027886e-05,8.95
0.0488486997783184,-0.0086704101413488,0.031398881226778,8.95
-2.0517873053904623e-05,-0.03310501947999,0.0261628944426774,8.96
-0.0611070431768894,-0.0278690326958894,0.00347361410968,8.96
0.0401220545172691,-0.0226330440491437,-0.0069983615539968,8.97
0.1291338503360748,-0.0034344226587563,0.0069642723537981,8.97
-0.0611070431768894,-0.0069250809028744,-0.0174703374505043,8.98
-0.0995042845606803,-0.0348503477871418,-0.0017623737221583,8.98
-0.0262004565447568,-0.0453223213553428,0.0052189431153237,8.99
-0.0174738094210624,-0.0383410081267356,0.0017282847547903,8.99
0.1064445674419403,-0.0139063978567719,0.0122002605348825,8.1
0.0453580394387245,5.6235880038002506e-05,-1.704443639027886e-05,9.0
-0.0331817753612995,-0.0296143610030412,-0.0069983615539968,9.1
-0.0314364433288574,-0.0680116042494773,-0.0017623737221583,9.1
0.0610660053789615,-0.0540489703416824,0.0017282847547903,9.2
0.0977179184556007,-0.0139063978567719,0.0017282847547903,9.2
0.0505940280854702,5.6235880038002506e-05,-0.0087436903268098,9.3
-0.0768150091171264,-0.0278690326958894,-0.0366689562797546,9.3
-0.0541257262229919,-0.0645209476351738,-0.0192156676203012,9.4
0.0261594224721193,-0.0418316647410392,-0.033178299665451,9.4
0.0087061282247304,0.001801565173082,-0.0314329676330089,9.5
0.0087061282247304,0.0105282114818692,-0.0314329676330089,9.5
-0.0907776355743408,-0.0261237043887376,-0.0157250072807073,9.6
-0.0279457848519086,-0.0662662759423255,0.0122002605348825,9.6
-0.0680883601307869,-0.0173970572650432,-0.033178299665451,9.7
0.0750286355614662,0.0297268312424421,-0.0436502732336521,9.7
-0.0680883601307869,0.0070375530049204,-0.0366689562797546,9.8
-0.0593617111444473,-0.0715022608637809,0.0331442132592201,9.8
0.0209234338253736,-0.0680116042494773,-1.704443639027886e-05,9.9
0.0296500790864229,-0.0034344226587563,-0.0314329676330089,9.9
0.0732833072543144,0.031472161412239,-0.0279423128813505,9.1
-0.0122378226369619,-0.03310501947999,0.0453615151345729,9.1
0.0505940280854702,-0.0837195664644241,0.0488521754741668,9.11
-0.0122378226369619,-0.0557942986488342,-0.0157250072807073,9.11
0.0663019940257072,0.0210001859813928,-0.0366689562797546,9.12
-0.0139831518754363,-0.0243783742189407,0.047106847167015,9.12
0.0558300167322158,-0.1046635210514068,0.0645601376891136,9.13
-0.0523803979158401,-0.0802289098501205,-0.033178299665451,9.13
0.068047322332859,-0.0016890933038666,-0.0768115371465683,9.14
0.0156874451786279,-0.0139063978567719,0.0069642723537981,9.14
0.0331407375633716,-0.0941915437579155,0.0732867792248725,9.15
-0.0279457848519086,-0.0907008796930313,-0.0296876411885023,9.15
0.0348860658705234,-0.0139063978567719,-0.0960101559758186,9.16
0.0331407375633716,0.001801565173082,-0.0122343488037586,9.16
0.0348860658705234,-0.0645209476351738,0.0453615151345729,9.17
-0.0139831518754363,-0.0732475891709327,-0.0366689562797546,9.17
0.0104514574632048,0.0070375530049204,-0.0977554842829704,9.18
0.0313954055309295,0.0140188699588179,-0.020960995927453,9.18
0.0017248113872483,-0.0261237043887376,0.06106948107481,9.19
0.0017248113872483,-0.0557942986488342,0.0104549312964081,9.19
-0.0977589562535286,5.6235880038002506e-05,-0.0558675788342952,9.2
0.0174327753484249,0.0035468942951411,0.00347361410968,9.2
-0.0017658470897004,-0.0121610686182975,0.0558334924280643,9.21
-0.0593617111444473,-0.0592849552631378,-0.0069983615539968,9.21
-0.1012496128678321,-0.0121610686182975,-0.0890288352966308,9.22
-0.0715790167450904,-0.0173970572650432,-1.704443639027886e-05,9.22
0.0366313941776752,-0.03310501947999,0.0750321075320243,9.23
-0.0453990772366523,-0.0400863364338874,0.0244175642728805,9.23
-0.0296911131590604,0.001801565173082,-0.0314329676330089,9.24
0.0418673828244209,-0.0051797516644001,0.0383802019059658,9.24
0.0226687621325254,-0.0156517270952463,0.0715414509177208,9.25
-0.0104924933984875,-0.0173970572650432,0.031398881226778,9.25
-0.022709796205163,5.6235880038002506e-05,-0.0139796780422329,9.26
-0.0436537489295005,5.6235880038002506e-05,0.0715414509177208,9.26
0.0121967867016792,-0.0261237043887376,0.0802680999040603,9.27
-0.1571001559495926,-0.0139063978567719,0.017436247318983,9.27
-0.075069673359394,-0.0173970572650432,-0.0436502732336521,9.28
-0.0314364433288574,-0.0121610686182975,-0.0087436903268098,9.28
0.0436127111315727,-0.0296143610030412,-0.0244516544044017,9.29
-2.0517873053904623e-05,-0.0139063978567719,-0.0942648276686668,9.29
0.0959725901484489,-0.0261237043887376,-0.0750662013888359,9.3
0.0924819335341453,-0.0243783742189407,-0.0052530323155224,9.3
0.1483324617147445,-0.0453223213553428,0.031398881226778,9.31
0.0017248113872483,-0.0156517270952463,-0.0017623737221583,9.31
0.0593206733465194,-0.0173970572650432,0.0156909171491861,9.32
0.0139421159401535,-0.0278690326958894,0.0628148019313812,9.32
-0.0017658470897004,-0.043576993048191,0.0523428358137607,9.33
-0.0960136279463768,-0.0226330440491437,0.0052189431153237,9.33
-0.0192191395908594,-0.0034344226587563,0.029653551056981,9.34
-0.0279457848519086,-0.0383410081267356,0.0820134282112121,9.34
-0.08030566573143,-0.0296143610030412,0.0593241490423679,9.35
-0.0419084206223487,-0.03310501947999,0.0453615151345729,9.35
-0.0052565056830644,-0.0156517270952463,0.0837587565183639,9.36
0.0383767262101173,-0.0348503477871418,0.0837587565183639,9.36
-0.0471444092690944,-0.0208877157419919,0.0104549312964081,9.37
-0.0157284792512655,-0.03310501947999,0.0052189431153237,9.37
0.0156874451786279,-0.0400863364338874,0.0348895415663719,9.38
-0.0366724319756031,-0.0156517270952463,-0.0035077028442174,9.38
-0.0314364433288574,-0.0139063978567719,-0.0593582354485988,9.39
-0.0663430318236351,-0.0156517270952463,-0.0104890195652842,9.39
-0.0558710545301437,-0.043576993048191,-0.0122343488037586,9.4
-0.0488897375762462,-0.0139063978567719,-0.0506315901875495,9.4
-0.0576163828372955,-0.0365956760942935,-0.0192156676203012,9.41
-0.0366724319756031,-0.0296143610030412,0.0226722341030836,9.41
0.0226687621325254,-0.0313596874475479,0.01918157748878,9.42
-0.0139831518754363,-0.0191423874348402,-0.0139796780422329,9.42
0.0313954055309295,-0.0034344226587563,0.0505975037813186,9.43
0.0471033714711666,-0.0156517270952463,0.069796122610569,9.43
0.0401220545172691,-0.0156517270952463,0.0523428358137607,9.44
-2.0517873053904623e-05,-0.057539626955986,0.0750321075320243,9.44
-2.0517873053904623e-05,-0.0645209476351738,0.1396092921495437,9.45
-0.0139831518754363,-0.0732475891709327,0.0977213904261589,9.45
-0.0122378226369619,-0.1011728569865226,0.0802680999040603,9.46
-0.0453990772366523,-0.0994275286793708,0.1151746809482574,9.46
-0.0645977035164833,-0.0924462154507637,0.0924854055047035,9.47
0.0191781055182218,-0.0767382532358169,0.0680507943034172,9.47
0.0121967867016792,-0.0680116042494773,0.0645601376891136,9.48
-0.0279457848519086,0.0087828822433948,0.0436161868274211,9.48
0.0488486997783184,0.0419441387057304,0.0052189431153237,9.49
0.0645566657185554,0.0803413838148117,-0.0035077028442174,9.49
0.0593206733465194,0.1606265306472778,-0.0227063242346048,9.5
0.0087061282247304,0.2496383190155029,-0.0296876411885023,9.5
0.0453580394387245,0.3159608244895935,-0.0069983615539968,9.51
0.0034701405093073,0.3735567033290863,0.00347361410968,9.51
-0.0192191395908594,0.446860522031784,0.0226722341030836,9.52
-0.0576163828372955,0.5149283409118652,0.0069642723537981,9.52
-0.0104924933984875,0.5987041592597961,0.0348895415663719,9.53
0.0209234338253736,0.6859706044197083,0.0331442132592201,9.53
-0.0401630923151969,0.7330945134162903,0.0715414509177208,9.54
-0.0070018349215388,0.7296038269996643,0.1378639638423919,9.54
0.0121967867016792,0.7348397970199585,0.1710252165794372,9.55
-0.0453990772366523,0.757529079914093,0.1692798882722854,9.55
-0.1047402769327163,0.7418211102485657,0.2094224691390991,9.56
-2.0517873053904623e-05,0.7191318273544312,0.226875752210617,9.56
-0.00351117644459,0.7104052305221558,0.1378639638423919,9.57
-0.1675721257925033,0.6929519176483154,0.0715414509177208,9.57
-0.0680883601307869,0.635356068611145,0.0663054659962654,9.58
-0.0122378226369619,0.6109214425086975,0.0505975037813186,9.58
-0.08030566573143,0.635356068611145,-0.0645942315459251,9.59
-0.1134669184684753,0.6039401292800903,-0.0768115371465683,9.59
-0.1047402769327163,0.5603069067001343,0.0244175642728805,9.6
-0.0122378226369619,0.5585615634918213,0.0680507943034172,9.6
-0.0244551263749599,0.5672882199287415,0.0680507943034172,9.61
-0.0471444092690944,0.5376176238059998,0.1204106733202934,9.61
-0.0192191395908594,0.5009657144546509,0.181497186422348,9.62
0.0488486997783184,0.5184189677238464,0.1622985750436782,9.62
-0.0192191395908594,0.5114376544952393,0.1134293526411056,9.63
0.0261594224721193,0.5166736841201782,0.0680507943034172,9.63
0.0663019940257072,0.5533255934715271,0.0139455897733569,9.64
-0.0244551263749599,0.5742695331573486,0.0122002605348825,9.64
-0.0174738094210624,0.5760148763656616,0.0523428358137607,9.65
-0.0593617111444473,0.5760148763656616,0.0872494131326675,9.65
-0.0349271036684513,0.6126667857170105,0.129137322306633,9.66
-0.0157284792512655,0.6196480989456177,0.1553172618150711,9.66
0.0505940280854702,0.633610725402832,0.123901329934597,9.67
-2.0517873053904623e-05,0.6161574125289917,0.1116840243339538,9.67
0.0139421159401535,0.6528093218803406,0.0994667187333107,9.68
0.0558300167322158,0.6632813215255737,0.0209269057959318,9.68
-0.00351117644459,0.6912065744400024,-0.0261969845741987,9.69
0.0087061282247304,0.713895857334137,-0.0349236279726028,9.69
0.0924819335341453,0.7191318273544312,-0.0279423128813505,9.7
0.1849843859672546,0.6493186950683594,0.0069642723537981,9.7
0.0191781055182218,0.633610725402832,0.0418708585202693,9.71
0.0802646279335022,0.6371013522148132,0.0628148019313812,9.71
0.1622951030731201,0.5987041592597961,0.1047027111053466,9.72
0.062811329960823,0.5027109980583191,0.1500812619924545,9.72
0.0645566657185554,0.446860522031784,0.1500812619924545,9.73
0.1308791786432266,0.3438861072063446,0.0907400697469711,9.73
0.310648113489151,0.2897808849811554,0.1622985750436782,9.74
-0.0488897375762462,0.384028673171997,-0.141388714313507,9.74
-0.0122378226369619,0.3543580770492553,-0.0488862618803978,9.75
0.1116805523633956,0.1361919194459915,0.129137322306633,9.75
0.2059283256530761,-0.0523036420345306,0.3822100460529327,9.76
-0.050635065883398,0.0541614443063735,0.183242529630661,9.76
0.1134258806705474,0.1082666516304016,-0.0663395598530769,9.77
0.0750286355614662,-0.0715022608637809,-0.0087436903268098,9.77
0.1046992391347885,-0.2599978148937225,0.0889947414398193,9.78
-0.0645977035164833,-0.1482967436313629,-0.0261969845741987,9.78
0.0121967867016792,-0.0662662759423255,-0.1623326689004898,9.79
0.0471033714711666,-0.1465514153242111,-0.0523769222199916,9.79
0.0296500790864229,-0.2093832790851593,-0.0227063242346048,9.8
-0.2216773331165313,-0.1448060870170593,-0.0488862618803978,9.8
-0.0680883601307869,-0.0854648947715759,-0.0977554842829704,9.81
-0.1012496128678321,-0.1273528039455413,-0.020960995927453,9.81
0.0034701405093073,-0.0784835815429687,-0.0227063242346048,9.82
-0.1047402769327163,-0.0278690326958894,-0.0768115371465683,9.82
0.2355989217758178,-0.057539626955986,0.06106948107481,9.83
0.3438093662261963,-0.0540489703416824,0.0977213904261589,9.83
0.0174327753484249,0.0873226970434188,-0.101246140897274,9.84
0.054084688425064,0.0506707839667797,0.0680507943034172,9.84
-0.1256842166185379,-0.0156517270952463,0.0628148019313812,9.85
0.1867297142744064,-0.1029181852936744,0.1326279789209365,9.85
-0.3892289102077484,0.0122735407203435,0.0017282847547903,9.86
0.0366313941776752,0.0943040177226066,-0.0279423128813505,9.86
-0.1239388957619667,0.0471801273524761,-0.0087436903268098,9.87
-0.0768150091171264,-0.0941915437579155,0.0558334924280643,9.87
-0.0087471641600131,-0.0051797516644001,-0.0174703374505043,9.88
-0.0768150091171264,0.0157641973346471,-0.0436502732336521,9.88
0.1692764163017273,-0.0069250809028744,0.06106948107481,9.89
0.0820099562406539,-0.0069250809028744,0.0244175642728805,9.89
0.0889912694692611,-0.0156517270952463,-0.0227063242346048,9.9
0.0296500790864229,-0.0051797516644001,-0.0122343488037586,9.9
0.0488486997783184,-0.0104157393798232,-0.0244516544044017,9.91
0.0244140923023223,-0.0086704101413488,-0.0279423128813505,9.91
-0.075069673359394,-0.0191423874348402,-0.0261969845741987,9.92
-0.0680883601307869,-0.0069250809028744,0.0052189431153237,9.92
0.0087061282247304,-0.0104157393798232,0.0279082227498292,9.93
-0.0070018349215388,5.6235880038002506e-05,-0.0035077028442174,9.93
-0.0611070431768894,5.6235880038002506e-05,-0.0436502732336521,9.94
0.0313954055309295,5.6235880038002506e-05,-0.033178299665451,9.94
0.0383767262101173,-0.0051797516644001,-0.0366689562797546,9.95
0.0174327753484249,-0.0016890933038666,-0.0261969845741987,9.95
0.0348860658705234,-0.0086704101413488,0.0052189431153237,9.96
-2.0517873053904623e-05,-0.0104157393798232,0.0366348698735237,9.96
0.0244140923023223,5.6235880038002506e-05,0.0366348698735237,9.97
-0.022709796205163,0.0157641973346471,-0.0296876411885023,9.97
-0.0070018349215388,0.0052922237664461,-0.0506315901875495,9.98
0.0034701405093073,-0.0051797516644001,-0.0349236279726028,9.98
-0.0262004565447568,-0.0121610686182975,-0.0349236279726028,9.99
-0.0174738094210624,5.6235880038002506e-05,-0.0279423128813505,9.99
-0.0209644678980112,-0.0051797516644001,0.0052189431153237,9.1
0.0209234338253736,-0.0139063978567719,0.0122002605348825,10.0
-0.0017658470897004,-0.0069250809028744,0.0209269057959318,10.1
-0.00351117644459,-0.0173970572650432,0.00347361410968,10.1
0.0087061282247304,-0.0051797516644001,0.0122002605348825,10.2
-0.0331817753612995,5.6235880038002506e-05,-0.0192156676203012,10.2
0.0488486997783184,5.6235880038002506e-05,-0.020960995927453,10.3
-0.0262004565447568,0.0052922237664461,0.00347361410968,10.3
0.0750286355614662,-0.0069250809028744,-0.0087436903268098,10.4
-0.0837963223457336,-0.0051797516644001,-0.0052530323155224,10.4
0.0453580394387245,-0.0139063978567719,-0.0122343488037586,10.5
-0.075069673359394,-0.0086704101413488,-1.704443639027886e-05,10.5
0.0488486997783184,-0.0121610686182975,0.00347361410968,10.6
-0.0558710545301437,-0.0104157393798232,0.0104549312964081,10.6
0.0279047507792711,-0.0173970572650432,0.0104549312964081,10.7
0.0104514574632048,-0.0173970572650432,0.0017282847547903,10.7
-0.00351117644459,-0.0069250809028744,0.0104549312964081,10.8
0.0488486997783184,0.0035468942951411,-0.0035077028442174,10.8
-0.0471444092690944,5.6235880038002506e-05,-1.704443639027886e-05,10.9
0.0994632467627525,-0.0051797516644001,0.0069642723537981,10.9
-0.0611070431768894,0.0052922237664461,-0.0122343488037586,10.1
0.0121967867016792,-0.0051797516644001,-0.0087436903268098,10.1
0.0226687621325254,-0.0086704101413488,-0.0104890195652842,10.11
-0.0209644678980112,-0.0104157393798232,-0.0052530323155224,10.11
0.0034701405093073,0.0087828822433948,-0.0069983615539968,10.12
-0.0366724319756031,-0.0034344226587563,-0.0192156676203012,10.12
-0.0157284792512655,-0.0191423874348402,0.0104549312964081,10.13
-2.0517873053904623e-05,-0.0069250809028744,0.0052189431153237,10.13
0.0174327753484249,-0.0086704101413488,-0.0035077028442174,10.14
0.1029539033770561,-0.0173970572650432,-0.0017623737221583,10.14
-0.0052565056830644,0.0035468942951411,-0.0227063242346048,10.15
0.0087061282247304,5.6235880038002506e-05,-0.0174703374505043,10.15
-0.0715790167450904,-0.0243783742189407,0.0087096020579338,10.16
0.0174327753484249,-0.0051797516644001,0.029653551056981,10.16
-0.0907776355743408,0.0279815029352903,0.00347361410968,10.17
0.0436127111315727,0.0105282114818692,0.0122002605348825,10.17
0.0872459411621093,-0.0086704101413488,0.0052189431153237,10.18
0.0244140923023223,-0.0034344226587563,-0.0227063242346048,10.18
-0.0157284792512655,0.0035468942951411,-0.0104890195652842,10.19
0.0331407375633716,-0.0156517270952463,0.0087096020579338,10.19
-0.0314364433288574,-0.0069250809028744,0.0401255302131176,10.2
-0.0192191395908594,0.0140188699588179,0.0017282847547903,10.2
-0.0523803979158401,0.0210001859813928,-0.0122343488037586,10.21
-0.0611070431768894,-0.0121610686182975,-0.0261969845741987,10.21
-2.0517873053904623e-05,-0.0348503477871418,-0.0174703374505043,10.22
0.0052154697477817,-0.0156517270952463,-0.0192156676203012,10.22
0.0436127111315727,5.6235880038002506e-05,0.0017282847547903,10.23
0.1396058201789856,0.001801565173082,-1.704443639027886e-05,10.23
0.0471033714711666,-0.0173970572650432,-1.704443639027886e-05,10.24
0.0959725901484489,-0.0069250809028744,-1.704443639027886e-05,10.24
0.0017248113872483,5.6235880038002506e-05,-0.0052530323155224,10.25
-0.0070018349215388,-0.0034344226587563,-1.704443639027886e-05,10.25
-0.0541257262229919,5.6235880038002506e-05,-0.0069983615539968,10.26
-0.1134669184684753,0.019254857674241,-0.0104890195652842,10.26
-0.1256842166185379,0.001801565173082,0.0104549312964081,10.27
-0.075069673359394,-0.0121610686182975,0.0383802019059658,10.27
0.1134258806705474,-0.0173970572650432,0.0366348698735237,10.28
0.1675310879945755,-0.0104157393798232,-1.704443639027886e-05,10.28
0.1954563558101654,0.0070375530049204,0.0104549312964081,10.29
0.2286176085472107,5.6235880038002506e-05,-0.0087436903268098,10.29
0.0505940280854702,-0.0348503477871418,0.0418708585202693,10.3
0.0331407375633716,-0.0156517270952463,0.0383802019059658,10.3
-0.1937520653009414,0.045434795320034,-1.704443639027886e-05,10.31
-0.2077146917581558,5.6235880038002506e-05,0.0156909171491861,10.31
-0.3421050310134887,-0.0278690326958894,0.0279082227498292,10.32
-0.1064856052398681,0.0052922237664461,-0.0314329676330089,10.32
-0.2600745558738708,0.0244908444583416,-0.0523769222199916,10.33
0.5340502262115479,-0.0924462154507637,0.1169200092554092,10.33
0.1430964767932891,5.6235880038002506e-05,-0.0558675788342952,10.34
0.3682439625263214,0.0838320404291153,-0.0261969845741987,10.34
0.127388522028923,0.0227455142885446,0.0209269057959318,10.35
0.3455546796321869,-0.1640047132968902,0.1797518581151962,10.35
0.1518231183290481,-0.0557942986488342,0.16404390335083,10.36
-0.1256842166185379,0.1658625155687332,-0.2024752348661422,10.36
-0.1902614086866378,0.1065213233232498,-0.1099727898836135,10.37
-0.5428178906440735,-0.111644834280014,0.1081933677196502,10.37
-0.3735209703445434,-0.1238621398806572,0.1012120470404625,10.38
-0.3281424045562744,0.0419441387057304,-0.2129472196102142,10.38
-0.375266283750534,0.0349628217518329,-0.0401596166193485,10.39
0.673676609992981,-0.0453223213553428,0.1884785145521164,10.39
0.2181456387042999,0.001801565173082,-0.0052530323155224,10.4
0.3141387701034546,0.0838320404291153,-0.0855381786823272,10.4
0.1448418051004409,0.1065213233232498,-0.1780406236648559,10.41
0.116916537284851,-0.0715022608637809,0.0017282847547903,10.41
-0.0279457848519086,-0.0627756118774414,0.1273919939994812,10.42
-0.2565838992595672,0.0646334215998649,-0.1762952953577041,10.42
-0.188516080379486,0.2164770662784576,-0.2513444423675537,10.43
-0.3281424045562744,0.2426570057868957,-0.087283506989479,10.43
-0.2967264652252197,0.1972784399986267,-0.0558675788342952,10.44
-0.197242721915245,0.1553905457258224,-0.0960101559758186,10.44
-0.1571001559495926,0.2426570057868957,-0.1169541031122207,10.45
0.1029539033770561,0.2670916020870209,-0.0803021937608718,10.45
0.1064445674419403,0.2566196322441101,-0.0104890195652842,10.46
0.1483324617147445,0.2444023340940475,0.0017282847547903,10.46
0.0889912694692611,0.2269490361213684,0.017436247318983,10.47
0.0889912694692611,0.2112410813570022,0.0226722341030836,10.47
-0.0017658470897004,0.1920424550771713,0.017436247318983,10.48
-0.1291748881340026,0.1710985004901886,0.0139455897733569,10.48
-0.08030566573143,0.1641171872615814,0.0139455897733569,10.49
0.0191781055182218,0.212986409664154,0.0244175642728805,10.49
-0.0192191395908594,0.2025144249200821,0.0645601376891136,10.5
0.068047322332859,0.1449185609817505,0.0994667187333107,10.5
0.1605497747659683,0.099540002644062,0.0802680999040603,10.51
0.0575753450393676,0.0943040177226066,0.0366348698735237,10.51
0.12564317882061,0.0838320404291153,0.0069642723537981,10.52
0.0820099562406539,0.0751053914427757,0.0122002605348825,10.52
-0.0384177640080452,0.0960493460297584,-0.0139796780422329,10.53
-0.0855416506528854,0.1117573082447052,0.00347361410968,10.53
-0.1693174540996551,0.0908133536577224,0.029653551056981,10.54
-0.0995042845606803,0.0890680253505706,0.0122002605348825,10.54
-0.0122378226369619,0.1327012628316879,-0.0157250072807073,10.55
-0.0157284792512655,0.1518998742103576,0.0017282847547903,10.55
0.0104514574632048,0.1309559345245361,0.0383802019059658,10.56
0.1343698352575302,0.1187386214733123,0.0418708585202693,10.56
0.0453580394387245,0.1361919194459915,-0.0052530323155224,10.57
0.0959725901484489,0.1396825760602951,-1.704443639027886e-05,10.57
0.0610660053789615,0.1117573082447052,0.0540881641209125,10.58
-0.0157284792512655,0.0803413838148117,0.0837587565183639,10.58
-0.0349271036684513,0.0785960555076599,0.0209269057959318,10.59
-0.0331817753612995,0.0943040177226066,-0.0087436903268098,10.59
-0.0488897375762462,0.0925586894154548,-0.0017623737221583,10.6
-0.0593617111444473,0.0698694065213203,0.0261628944426774,10.6
0.0523393601179122,0.0838320404291153,0.0209269057959318,10.61
-0.0157284792512655,0.1065213233232498,0.0017282847547903,10.61
